acc_x,acc_y,acc_z,gyro_x,gyro_y,gyro_z,ori_x,ori_y,ori_z,ori_w,orie_x,orie_y,orie_z
0.22168,-0.867188,0.509277,0.3125,0.5,-0.375,-0.425842,0.264832,-0.628601,0.594482,-1.0361,-0.222321,-1.49954
0.217285,-0.855957,0.519531,0.125,-0.25,0,-0.425781,0.264832,-0.628601,0.594482,-1.03597,-0.222243,-1.49953
0.226563,-0.848633,0.514648,0.9375,-0.5625,-0.125,-0.425781,0.264832,-0.628601,0.594482,-1.03597,-0.222243,-1.49953
0.221191,-0.848633,0.507813,0.3125,-0.5625,-0.0625,-0.425781,0.264832,-0.628662,0.594482,-1.03599,-0.222296,-1.4997
0.224609,-0.858398,0.503906,-0.375,-0.0625,-0.125,-0.425781,0.264832,-0.628601,0.594482,-1.03597,-0.222243,-1.49953
0.224121,-0.86084,0.508301,-0.5,0.1875,1.125,-0.42572,0.265015,-0.628479,0.594543,-1.03613,-0.221801,-1.49942
0.22168,-0.864746,0.509277,1.25,0.3125,0.6875,-0.425537,0.265015,-0.628479,0.594727,-1.03582,-0.221466,-1.49943
0.224121,-0.863281,0.518555,0.75,0.5,0.375,-0.425537,0.265015,-0.628479,0.594727,-1.03582,-0.221466,-1.49943
0.223633,-0.856445,0.518066,0.1875,-0.125,0.25,-0.425476,0.264954,-0.628479,0.594788,-1.03562,-0.221428,-1.49936
0.221191,-0.858398,0.511719,0.5625,-0.1875,0.0625,-0.425476,0.264954,-0.628479,0.594788,-1.03562,-0.221428,-1.49936
0.223633,-0.849121,0.504395,1.0625,-0.3125,0,-0.425415,0.264832,-0.62854,0.594849,-1.03534,-0.221519,-1.49939
0.219727,-0.855957,0.501465,0.75,-0.4375,-0.3125,-0.425415,0.264832,-0.62854,0.594849,-1.03534,-0.221519,-1.49939
0.219238,-0.860352,0.504395,0.4375,0.3125,0.5,-0.425415,0.264832,-0.62854,0.594849,-1.03534,-0.221519,-1.49939
0.220215,-0.861328,0.508789,0.75,0.625,1.3125,-0.425171,0.264954,-0.628418,0.595032,-1.03506,-0.220849,-1.49921
0.219727,-0.855469,0.51123,1.4375,0.4375,1.25,-0.424866,0.264954,-0.628418,0.595276,-1.03452,-0.220324,-1.49922
0.221191,-0.854004,0.510742,0.625,0.625,0.6875,-0.424866,0.264954,-0.628418,0.595276,-1.03452,-0.220324,-1.49922
0.222168,-0.861816,0.509766,0.625,1.0625,0.6875,-0.424683,0.265076,-0.628418,0.595398,-1.03438,-0.219873,-1.49937
0.215332,-0.864746,0.506836,0.5625,0.6875,0.5625,-0.424683,0.265076,-0.628418,0.595398,-1.03438,-0.219873,-1.49937
0.220215,-0.856934,0.514648,1,0.3125,0.9375,-0.424438,0.265076,-0.628418,0.595581,-1.03395,-0.219459,-1.49938
0.218262,-0.852051,0.510742,1.75,0.375,1.3125,-0.424072,0.265015,-0.628418,0.595886,-1.03321,-0.218896,-1.49932
0.220215,-0.849609,0.50293,0.9375,1,1.0625,-0.423828,0.265137,-0.628418,0.596008,-1.03294,-0.218366,-1.49946
0.223145,-0.864746,0.51123,-0.4375,1.75,1.3125,-0.423645,0.265442,-0.628357,0.596008,-1.03302,-0.217705,-1.49964
0.214355,-0.858398,0.523438,-2.3125,1.625,2.5,-0.423462,0.266052,-0.628113,0.596069,-1.03357,-0.216479,-1.49969
0.212891,-0.861328,0.530762,-0.5,1,1.9375,-0.423157,0.266296,-0.628052,0.596313,-1.0334,-0.215603,-1.49982
0.214844,-0.857422,0.511719,-0.1875,0.5,0.625,-0.423157,0.266296,-0.628052,0.596313,-1.0334,-0.215603,-1.49982
0.223145,-0.867188,0.507813,-0.9375,0.1875,-0.125,-0.423157,0.266296,-0.628052,0.596313,-1.0334,-0.215603,-1.49982
0.224121,-0.870117,0.508789,-0.3125,-0.9375,0.4375,-0.423157,0.266296,-0.628052,0.596313,-1.0334,-0.215603,-1.49982
0.216309,-0.862305,0.530273,3,-1.3125,0.3125,-0.422852,0.265808,-0.628113,0.59668,-1.03216,-0.21566,-1.49944
0.213379,-0.86084,0.535645,2.8125,-2.1875,-1,-0.422668,0.265198,-0.628235,0.596985,-1.03097,-0.21611,-1.49909
0.210449,-0.881836,0.539063,2.0625,-3.9375,-2.4375,-0.422791,0.264465,-0.628235,0.597168,-1.03014,-0.217064,-1.49827
0.20752,-0.874512,0.524414,1.3125,-5.75,-6.375,-0.423462,0.263367,-0.628479,0.596924,-1.02978,-0.219615,-1.49767
0.225098,-0.861816,0.517578,0.125,-6.0625,-8,-0.424438,0.262146,-0.628845,0.596375,-1.02977,-0.222981,-1.49724
0.233398,-0.861328,0.512207,-2.625,-6.375,-8.125,-0.425842,0.261169,-0.629089,0.59552,-1.03089,-0.226658,-1.49676
0.234375,-0.872559,0.507813,-2.3125,-5.4375,-7.3125,-0.427063,0.260437,-0.629333,0.594788,-1.03206,-0.229736,-1.49656
0.222168,-0.864258,0.508789,-0.25,-4.625,-7.25,-0.427917,0.259583,-0.629639,0.594238,-1.03237,-0.232447,-1.49639
0.222656,-0.841309,0.498047,-1.625,-3.5625,-8.1875,-0.428772,0.258911,-0.630066,0.593445,-1.0329,-0.235172,-1.49673
0.23877,-0.841309,0.484863,-11.5,-3.8125,-7.6875,-0.430847,0.259216,-0.630005,0.591858,-1.0371,-0.238282,-1.49684
0.251953,-0.853027,0.489746,-13.6875,-3.5625,-5.3125,-0.432983,0.259949,-0.6297,0.590271,-1.04205,-0.240737,-1.49679
0.248047,-0.868164,0.500977,-11.25,-2.3125,-3.625,-0.43457,0.260681,-0.629395,0.589172,-1.04605,-0.242222,-1.49676
0.250977,-0.873047,0.51123,-3.8125,-2.1875,-1.125,-0.435181,0.260742,-0.629211,0.588867,-1.04728,-0.242939,-1.49633
0.248047,-0.858398,0.507813,0.25,0.5,-1.625,-0.43512,0.260559,-0.629456,0.588684,-1.04684,-0.243399,-1.49676
0.233887,-0.841797,0.510254,-3.5625,-0.5625,-5.1875,-0.435486,0.260437,-0.629883,0.588013,-1.04725,-0.244766,-1.49771
0.263184,-0.882324,0.477539,-13.625,-1.125,-5.4375,-0.4375,0.261475,-0.629639,0.586304,-1.05242,-0.246825,-1.49816
0.253418,-0.876465,0.550293,-3,-2.9375,-0.5625,-0.437744,0.26123,-0.629517,0.586365,-1.05255,-0.247295,-1.49757
0.233887,-0.88916,0.567383,2.875,-3.125,2.4375,-0.437073,0.260681,-0.629333,0.587341,-1.05062,-0.246397,-1.49652
0.225586,-0.836914,0.537598,-1.6875,-4,-1,-0.437134,0.260254,-0.629211,0.587585,-1.05016,-0.246753,-1.49573
0.22998,-0.84668,0.52832,-6.0625,-4,-1.75,-0.437805,0.260254,-0.628967,0.587341,-1.05144,-0.247535,-1.49508
0.241699,-0.867188,0.513184,-4.75,-2.0625,3.8125,-0.438171,0.260864,-0.628235,0.587646,-1.05314,-0.246444,-1.49386
0.235352,-0.904785,0.464844,-6.4375,2.9375,8.375,-0.438293,0.262939,-0.627075,0.58783,-1.05645,-0.242941,-1.49316
0.225586,-0.853516,0.500488,7.6875,2.5,15.0625,-0.43634,0.263489,-0.626099,0.590088,-1.05383,-0.237652,-1.49134
0.226074,-0.857422,0.505859,10.6875,5.625,18.6875,-0.433594,0.264282,-0.625122,0.592773,-1.05009,-0.230823,-1.48981
0.198242,-0.881836,0.538574,7.375,7.6875,30.6875,-0.430176,0.266724,-0.622864,0.596558,-1.04768,-0.219406,-1.48689
0.102051,-0.929199,0.552734,3.125,11.1875,40.6875,-0.425842,0.271423,-0.619202,0.601318,-1.04699,-0.202318,-1.48306
0.0571289,-0.974121,0.574219,9.5625,11.9375,47.75,-0.420166,0.276367,-0.61499,0.607361,-1.04435,-0.182091,-1.47832
0.0244141,-0.998535,0.591797,12.75,11.75,58.625,-0.413574,0.281799,-0.609619,0.614746,-1.04093,-0.158437,-1.47148
0.0180664,-1.00342,0.57373,12.625,16.4375,68.0625,-0.406311,0.28833,-0.603455,0.62262,-1.038,-0.131721,-1.46426
-0.0170898,-0.982422,0.569336,19.3125,23.5625,81.25,-0.39679,0.295715,-0.596619,0.631775,-1.03237,-0.0999795,-1.45678
-0.0585938,-0.949707,0.570313,16.625,25.8125,94.5,-0.386475,0.304443,-0.588135,0.641907,-1.02751,-0.0637931,-1.44741
-0.0976563,-0.956543,0.539551,9.3125,26.625,104.938,-0.376892,0.313782,-0.57843,0.651855,-1.02491,-0.0269341,-1.43643
-0.117188,-0.969727,0.500977,9.625,29,112.188,-0.366638,0.323792,-0.56781,0.662109,-1.02219,0.0124094,-1.42477
-0.117676,-0.949219,0.496094,14.5,30.5,117.875,-0.355225,0.333557,-0.556641,0.672791,-1.01705,0.0533886,-1.41212
-0.132324,-0.895996,0.490234,18.0625,32.1875,125.938,-0.34259,0.343506,-0.544678,0.684082,-1.01011,0.0969214,-1.39848
-0.148438,-0.875488,0.444824,10.625,30.9375,133.563,-0.330444,0.354248,-0.531006,0.695251,-1.00507,0.142125,-1.38273
-0.167969,-0.837402,0.420898,3.9375,29.4375,137.625,-0.318848,0.365417,-0.515991,0.706055,-1.00139,0.188071,-1.3653
-0.182617,-0.816406,0.402832,0.625,25.75,142.563,-0.307495,0.376465,-0.499756,0.716919,-0.997632,0.23459,-1.34575
-0.202637,-0.774902,0.378418,-2.3125,22.4375,144.813,-0.296509,0.387268,-0.482483,0.727539,-0.993663,0.281071,-1.32426
-0.205566,-0.803223,0.369629,-11.9375,18.1875,144.188,-0.287048,0.397949,-0.464233,0.737366,-0.991626,0.326103,-1.30126
-0.194824,-0.82666,0.387695,-17.125,13.875,137.125,-0.278992,0.407837,-0.446106,0.746216,-0.990377,0.367999,-1.27799
-0.175293,-0.783203,0.40332,-14.6875,11,134.188,-0.270935,0.416626,-0.428223,0.7547,-0.986852,0.408043,-1.25381
-0.212402,-0.729004,0.407227,-17.25,8.8125,130.375,-0.263367,0.424927,-0.410339,0.762695,-0.982941,0.446753,-1.2292
-0.230469,-0.793457,0.424805,-27.8125,3.75,125.563,-0.257996,0.4328,-0.391907,0.769714,-0.981563,0.482556,-1.20336
-0.259277,-0.830566,0.472168,-24.4375,-1.875,118,-0.252991,0.439087,-0.37439,0.776489,-0.977741,0.514912,-1.17681
-0.335938,-0.785156,0.5,-16.625,-6.1875,104.125,-0.247986,0.443542,-0.359009,0.782837,-0.970756,0.542624,-1.15132
-0.362793,-0.748535,0.521973,-19.5625,-16.6875,106.625,-0.243713,0.446655,-0.342407,0.789795,-0.961417,0.568815,-1.12071
-0.406738,-0.734375,0.543457,-19.3125,-20.5,107.75,-0.23938,0.449158,-0.325378,0.796875,-0.949937,0.594467,-1.08775
-0.525879,-0.715332,0.570313,-11.3125,-23.375,101.813,-0.234375,0.450439,-0.309448,0.803955,-0.934535,0.617762,-1.05408
-0.605469,-0.683594,0.562988,-8.375,-29.75,94.8125,-0.229675,0.450012,-0.294495,0.811157,-0.916116,0.636998,-1.01882
-0.61377,-0.733398,0.528809,-17.8125,-33.8125,82.625,-0.228149,0.449097,-0.280396,0.817078,-0.903147,0.650959,-0.985625
-0.597656,-0.780762,0.560547,-12.0625,-32.5625,76.4375,-0.226624,0.447388,-0.268005,0.822571,-0.889259,0.661807,-0.954404
-0.674316,-0.682129,0.600098,10.5,-27.75,67,-0.221252,0.445129,-0.258301,0.828369,-0.867492,0.672781,-0.925659
-0.665039,-0.578613,0.57959,7.9375,-33.5,57.75,-0.216675,0.441833,-0.249146,0.834106,-0.845429,0.680402,-0.896314
-0.625977,-0.547852,0.541016,-5.8125,-37.75,51.3125,-0.214966,0.438293,-0.239746,0.839111,-0.828816,0.68475,-0.867605
-0.610352,-0.553711,0.518066,-10,-33.6875,44.75,-0.214417,0.435364,-0.231201,0.843201,-0.81647,0.688075,-0.842723
-0.632813,-0.518066,0.493164,-7.6875,-25.8125,36.0625,-0.213684,0.433533,-0.224182,0.846191,-0.806739,0.691762,-0.823144
-0.595703,-0.463867,0.482422,-13.1875,-22,29.5,-0.213867,0.432007,-0.217773,0.848572,-0.799997,0.694535,-0.806097
-0.544922,-0.469727,0.442383,-23.5625,-14.75,21.1875,-0.21637,0.43158,-0.212341,0.849548,-0.801134,0.696331,-0.794846
-0.490723,-0.476074,0.418945,-31.75,-4.0625,13.1875,-0.220642,0.432556,-0.208069,0.84906,-0.809634,0.698037,-0.790014
-0.512207,-0.675781,0.854492,-31.9375,-16.875,-2.875,-0.226379,0.427551,-0.206787,0.850403,-0.812771,0.686142,-0.782112
-0.806641,-1.01758,0.718262,5.1875,-17.9375,1.625,-0.228577,0.424377,-0.207336,0.851196,-0.812465,0.67856,-0.779169
-0.547363,-0.322266,0.500977,-14.0625,-22,-33.6875,-0.232239,0.420166,-0.209778,0.851746,-0.814957,0.666593,-0.779644
-0.382324,-0.720703,0.60498,-38.75,-10,-4.75,-0.240601,0.417603,-0.208862,0.850891,-0.828659,0.656267,-0.778632
-0.540527,-0.769531,0.546387,-9.875,0.4375,-8.8125,-0.244446,0.416992,-0.210449,0.849731,-0.837156,0.650741,-0.783494
-0.592285,-0.57373,0.527344,0.5625,-0.25,-14.5,-0.2453,0.416321,-0.212585,0.849304,-0.839192,0.647095,-0.787506
-0.668945,-0.623047,0.471191,-21.5,-1.5625,-9.9375,-0.249451,0.417358,-0.212097,0.847656,-0.849868,0.645675,-0.790833
-0.682129,-0.717773,0.443359,-30.375,0.6875,-7.125,-0.25531,0.419373,-0.210876,0.845215,-0.865635,0.645055,-0.795395
-0.661621,-0.714844,0.453613,-19.625,5.875,-2.375,-0.259033,0.421692,-0.210083,0.84314,-0.877499,0.646321,-0.800139
-0.654785,-0.681152,0.475098,-7.8125,5.75,-0.375,-0.260437,0.423401,-0.209778,0.841919,-0.883449,0.648097,-0.803423
-0.651367,-0.618164,0.489258,-6.5625,2.375,1.125,-0.261108,0.424438,-0.208984,0.84137,-0.88632,0.649872,-0.804016
-0.64209,-0.62207,0.501953,-12.8125,-1.6875,2.5,-0.262695,0.425049,-0.207458,0.840942,-0.890065,0.65088,-0.802865
-0.609375,-0.648926,0.503906,-15.75,-3.125,4.5,-0.265015,0.425293,-0.205566,0.840576,-0.894602,0.651055,-0.800751
-0.597168,-0.666992,0.496094,-10,-2.625,6.375,-0.266479,0.425476,-0.203979,0.840393,-0.897293,0.651552,-0.798634
-0.60791,-0.631836,0.503906,-3.4375,-3,6.9375,-0.266602,0.425415,-0.202637,0.840759,-0.896716,0.652654,-0.795767
-0.617676,-0.637207,0.49707,-1.3125,-4.75,6.375,-0.266602,0.42511,-0.201416,0.841187,-0.895472,0.653284,-0.792611
-0.63916,-0.649902,0.491211,-2.6875,-6.4375,5.6875,-0.266968,0.424744,-0.200012,0.841614,-0.894853,0.653724,-0.789207
-0.642578,-0.651855,0.465332,-4.3125,-4.4375,3.9375,-0.2677,0.424927,-0.198853,0.841553,-0.896157,0.65446,-0.787543
-0.638184,-0.663574,0.47168,-1.5625,-4.8125,5.125,-0.268066,0.424866,-0.197754,0.841736,-0.896249,0.655086,-0.785338
-0.631836,-0.648926,0.477539,2.3125,-3.5625,4.5,-0.267761,0.424744,-0.197083,0.842041,-0.894959,0.655759,-0.783489
-0.619141,-0.665039,0.494629,-1.25,-2.3125,3.6875,-0.268066,0.424622,-0.196472,0.842102,-0.895061,0.655826,-0.782152
-0.59668,-0.63916,0.521484,-0.75,-1.5625,3.125,-0.268127,0.424255,-0.196045,0.842407,-0.894324,0.655634,-0.780635
-0.585449,-0.602051,0.537109,-1,-2,3.0625,-0.267883,0.423706,-0.195557,0.842896,-0.892536,0.655439,-0.778453
-0.592285,-0.589355,0.536133,-7.875,-3.125,3,-0.268555,0.423218,-0.194397,0.84314,-0.892502,0.655116,-0.775525
-0.604004,-0.617676,0.533203,-14.125,-3.1875,3.125,-0.270325,0.423096,-0.19281,0.843018,-0.895382,0.65494,-0.773095
-0.599121,-0.624512,0.526367,-13.0625,-1.4375,3.625,-0.271912,0.423157,-0.191345,0.842834,-0.898249,0.655107,-0.771145
-0.608398,-0.609375,0.51709,-11.75,-0.8125,2.0625,-0.273315,0.42334,-0.190125,0.84259,-0.901063,0.6554,-0.769819
-0.608887,-0.618652,0.505371,-14.1875,0.125,0.9375,-0.275208,0.423706,-0.188965,0.84198,-0.905303,0.655423,-0.769246
-0.624512,-0.645996,0.496094,-13.5,2.75,0.8125,-0.2771,0.424622,-0.187988,0.841187,-0.910684,0.656299,-0.770116
-0.63916,-0.665527,0.47998,-10.5,6.0625,0.5625,-0.278564,0.426025,-0.187378,0.840088,-0.916135,0.657833,-0.772347
-0.634766,-0.640625,0.482422,-6.6875,8.375,-0.5,-0.279297,0.427612,-0.187317,0.83905,-0.920595,0.659779,-0.775623
-0.628418,-0.623047,0.469727,-6.75,9.3125,-2.125,-0.280029,0.429199,-0.1875,0.837952,-0.925212,0.66148,-0.779434
-0.625,-0.645996,0.48584,-7.125,10.5,-3,-0.280945,0.430786,-0.187927,0.836731,-0.930402,0.662779,-0.7839
-0.631348,-0.651855,0.480469,-5.375,13.75,-4.5,-0.281616,0.432678,-0.188904,0.835327,-0.935932,0.664238,-0.789962
-0.634766,-0.657227,0.46582,-2.4375,16.625,-5.625,-0.281921,0.434998,-0.190369,0.833679,-0.941713,0.666144,-0.797639
-0.631836,-0.67041,0.456055,-1.625,19.9375,-7,-0.282227,0.437683,-0.192261,0.831726,-0.948459,0.66816,-0.806957
-0.633789,-0.675293,0.457031,2.3125,22.9375,-7.375,-0.28186,0.440552,-0.194763,0.829773,-0.954444,0.670431,-0.817534
-0.637207,-0.665039,0.444824,4.9375,26.0625,-8.5625,-0.281067,0.443848,-0.197693,0.827576,-0.960582,0.673218,-0.829623
-0.633789,-0.653809,0.446289,5.875,28.0625,-9.75,-0.280029,0.447205,-0.200928,0.825317,-0.966554,0.675952,-0.842398
-0.63623,-0.645508,0.437012,5.875,30.8125,-11.625,-0.278992,0.450928,-0.204529,0.822754,-0.973567,0.678828,-0.856781
-0.651367,-0.632324,0.447266,7.5,33,-16.3125,-0.27771,0.454651,-0.208923,0.820068,-0.980614,0.681102,-0.872795
-0.67334,-0.626953,0.428223,4.8125,34,-22.625,-0.277161,0.458496,-0.213867,0.816772,-0.989925,0.682098,-0.890752
-0.671387,-0.647461,0.390625,-3.8125,34,-27,-0.278442,0.462646,-0.21875,0.812683,-1.00401,0.681748,-0.910477
-0.65625,-0.671875,0.382324,-4.8125,31.9375,-29.5,-0.280334,0.466309,-0.223999,0.808533,-1.01869,0.679575,-0.930368
-0.65625,-0.674316,0.378418,0.6875,30.6875,-33.375,-0.281738,0.469299,-0.230042,0.804626,-1.03128,0.675898,-0.950163
-0.651367,-0.67334,0.383789,2.1875,30.3125,-37.1875,-0.283142,0.471924,-0.236755,0.800659,-1.04338,0.670821,-0.970514
-0.64502,-0.680176,0.374512,2.4375,32.125,-43.3125,-0.284912,0.474426,-0.244385,0.796204,-1.05636,0.663938,-0.992593
-0.613281,-0.67334,0.369629,2.5,32.6875,-50.8125,-0.28717,0.47644,-0.253113,0.791443,-1.0697,0.654519,-1.016
-0.591309,-0.679688,0.368652,1.25,33.375,-60.625,-0.290405,0.477966,-0.263184,0.786072,-1.08442,0.641717,-1.04136
-0.612793,-0.70459,0.351563,-6.6875,33.25,-75.1875,-0.295837,0.479248,-0.274353,0.779419,-1.10325,0.624562,-1.06911
-0.556641,-0.251465,0.373535,9.25,36.75,-58.25,-0.294434,0.480957,-0.283508,0.775574,-1.10795,0.617608,-1.09056
-0.533691,-0.800293,0.284668,-22.9375,36,-87.3125,-0.303894,0.482727,-0.295349,0.766418,-1.13549,0.594908,-1.12181
-0.559082,-0.737793,0.342285,-11.25,25.8125,-62.875,-0.309082,0.483459,-0.304016,0.760437,-1.1505,0.579193,-1.14235
-0.499023,-0.80957,0.212891,-15.25,23.125,-71.375,-0.316833,0.484192,-0.313416,0.75293,-1.17046,0.559218,-1.16493
-0.541504,-0.875977,0.294434,-34.125,13.9375,-74.125,-0.327209,0.484009,-0.320984,0.745361,-1.19252,0.536889,-1.18239
-0.445313,-0.936035,0.263672,-27.125,14,-66.625,-0.336731,0.483459,-0.328613,0.738159,-1.21183,0.514881,-1.19854
-0.431641,-0.933105,0.281738,-9.3125,12.1875,-43.9375,-0.341919,0.482727,-0.334717,0.733459,-1.22178,0.499777,-1.20993
-0.364746,-1.05566,0.391113,-8.3125,-4.25,-5.1875,-0.345093,0.480835,-0.335938,0.732727,-1.22411,0.492446,-1.20902
-0.472656,-0.861328,0.289063,24,-7.125,-20.5,-0.34436,0.477417,-0.340149,0.733337,-1.21649,0.484706,-1.20953
-0.492676,-0.823242,0.274414,21.875,-15.8125,-20.8125,-0.344177,0.473328,-0.343323,0.734558,-1.20832,0.476921,-1.20691
-0.428223,-0.723633,0.278809,5.375,-20.4375,-34.6875,-0.347351,0.468567,-0.346741,0.734558,-1.20536,0.463965,-1.20434
-0.267578,-0.629395,0.338379,-3.5625,-7.0625,-62.25,-0.353027,0.463013,-0.354614,0.731628,-1.20672,0.441316,-1.20938
-0.499512,-0.858398,0.303223,-54.125,-11.5625,-46.375,-0.363831,0.462585,-0.354858,0.72644,-1.22648,0.426695,-1.21139
-0.472656,-0.942871,0.294434,-48.125,-20.375,-44.1875,-0.374634,0.460571,-0.354919,0.722168,-1.24314,0.410742,-1.20981
-0.397461,-0.946289,0.274414,-29.1875,-23.5,-61.1875,-0.384949,0.455566,-0.358704,0.718018,-1.25382,0.387683,-1.2091
-0.371582,-0.983398,0.286133,-6.1875,-25.6875,-70.6875,-0.39325,0.448059,-0.365295,0.714905,-1.25649,0.361133,-1.20843
-0.3125,-0.97998,0.317383,9.5625,-25.4375,-69.25,-0.399353,0.439209,-0.37323,0.712952,-1.25293,0.334364,-1.2076
-0.313477,-0.924316,0.32666,16.5,-24.6875,-63.3125,-0.403625,0.430542,-0.380676,0.711914,-1.24644,0.310691,-1.20627
-0.293457,-0.895996,0.329102,10.1875,-26.5625,-53.9375,-0.407959,0.422607,-0.38623,0.711182,-1.24142,0.290017,-1.20309
-0.271484,-0.950684,0.325195,1.25,-25.875,-44.625,-0.412842,0.416077,-0.390076,0.710083,-1.23994,0.272167,-1.19951
-0.249512,-1.01758,0.342773,1.6875,-23.3125,-36.625,-0.417114,0.410217,-0.39325,0.70929,-1.23856,0.256675,-1.19593
-0.222168,-1.03857,0.336914,10,-21,-26,-0.419678,0.404785,-0.395874,0.709412,-1.23465,0.244467,-1.19192
-0.209961,-0.86084,0.329102,12.6875,-19.4375,-19.25,-0.420715,0.399902,-0.397888,0.710449,-1.22874,0.235599,-1.18763
-0.241699,-0.92041,0.294434,-1.9375,-20.625,-21.1875,-0.42395,0.39624,-0.398621,0.710144,-1.22908,0.226722,-1.1833
-0.219727,-1.03613,0.318848,-11.375,-25,-4.9375,-0.427917,0.393677,-0.396667,0.710327,-1.23245,0.221606,-1.17585
-0.183105,-1.0293,0.324707,8.75,-23.625,-4.4375,-0.429443,0.389587,-0.39624,0.711853,-1.22876,0.216008,-1.16849
-0.191406,-0.961426,0.326172,23.6875,-19.6875,-4.9375,-0.428528,0.385071,-0.397095,0.714417,-1.21981,0.211442,-1.16264
-0.209473,-0.923828,0.336426,17.25,-15.9375,-4.5625,-0.427795,0.381592,-0.397583,0.716431,-1.21288,0.208098,-1.15786
-0.203613,-0.938477,0.35791,9.8125,-13.1875,-5.625,-0.427917,0.378784,-0.39801,0.717651,-1.20875,0.20446,-1.15421
-0.189941,-0.928711,0.375,6.875,-11.5,-7.875,-0.428284,0.376099,-0.398743,0.718445,-1.20534,0.200197,-1.15137
-0.187012,-0.950684,0.378418,9.8125,-10.6875,-6.9375,-0.428284,0.373352,-0.399597,0.719421,-1.20116,0.196169,-1.14867
-0.182129,-0.942871,0.386719,11.9375,-7.6875,-6.3125,-0.427673,0.37085,-0.400696,0.720398,-1.19618,0.192777,-1.14674
-0.192383,-0.927246,0.380371,6.5,-3.5625,-5.875,-0.427368,0.369446,-0.401672,0.720764,-1.19351,0.190391,-1.14638
-0.181641,-0.92627,0.375488,-0.375,-0.5625,-5.25,-0.427795,0.368896,-0.402344,0.720459,-1.19359,0.188421,-1.14687
-0.170898,-0.939941,0.374512,-3.0625,2.25,-4.1875,-0.428406,0.368896,-0.402954,0.719727,-1.19484,0.186839,-1.14809
-0.171387,-0.93457,0.360352,-3.75,3.75,-1.5625,-0.428833,0.369385,-0.40332,0.718994,-1.19646,0.186333,-1.14959
-0.185059,-0.947266,0.358398,-7.5625,4.875,0.75,-0.429504,0.370605,-0.403076,0.71814,-1.19965,0.187137,-1.15111
-0.197266,-0.970215,0.353027,-9.8125,3.6875,0.25,-0.430603,0.371887,-0.402649,0.717041,-1.20375,0.187652,-1.15242
-0.171875,-0.987305,0.347168,-9,2.25,2.625,-0.431763,0.372925,-0.401978,0.716187,-1.20758,0.188158,-1.15289
-0.178711,-0.989258,0.366211,-3.3125,1.9375,9,-0.431641,0.373901,-0.40094,0.716309,-1.20874,0.190687,-1.15244
-0.189941,-0.966797,0.347656,-2.9375,0,14.6875,-0.431274,0.375244,-0.398926,0.71698,-1.20992,0.19523,-1.1507
-0.191895,-0.983398,0.342773,-10.5625,-1.4375,21,-0.431641,0.377319,-0.395569,0.717529,-1.21355,0.201346,-1.14768
-0.196289,-1.00635,0.33252,-8.5,-2.25,27.3125,-0.431519,0.3797,-0.391541,0.718567,-1.21664,0.20929,-1.14387
-0.218262,-1.02441,0.333008,0.3125,-3.9375,47.5,-0.429077,0.382813,-0.385315,0.721741,-1.21605,0.223786,-1.13685
-0.26416,-0.992676,0.332031,9,-6.875,59.9375,-0.424622,0.386047,-0.377686,0.726624,-1.21148,0.24265,-1.12716
-0.269043,-0.947754,0.333008,4.3125,-10.625,72.125,-0.420105,0.389893,-0.367981,0.732178,-1.20747,0.264845,-1.11463
-0.283203,-0.913574,0.34082,-4.6875,-13.0625,82.5625,-0.416016,0.39447,-0.35614,0.737854,-1.20512,0.289844,-1.09947
-0.322266,-0.927246,0.333008,-9.125,-14.625,89.6875,-0.412048,0.39978,-0.342834,0.74353,-1.20393,0.317264,-1.083
-0.338867,-0.944336,0.348145,-8.5,-16.25,95.75,-0.407593,0.404907,-0.328735,0.749512,-1.20119,0.345838,-1.06479
-0.35791,-0.90918,0.347656,-4.5625,-12.125,98.875,-0.4021,0.4104,-0.314697,0.755554,-1.19687,0.375868,-1.04723
-0.391602,-0.903809,0.341309,-2.4375,-6.6875,97.5,-0.395996,0.416382,-0.30127,0.760925,-1.1921,0.406142,-1.03152
-0.40625,-0.870605,0.354004,-3.375,-1.5625,95.4375,-0.389648,0.422668,-0.288452,0.765686,-1.18738,0.436172,-1.01748
-0.404785,-0.858398,0.362305,-1.875,5.75,95.375,-0.382813,0.429382,-0.276306,0.769836,-1.1825,0.466274,-1.00534
-0.410156,-0.841309,0.364258,1.9375,4.25,90.5625,-0.375854,0.435242,-0.265076,0.773987,-1.17597,0.494376,-0.993258
-0.443848,-0.833496,0.334961,9.875,0.125,84.4375,-0.368591,0.43988,-0.254822,0.778259,-1.16661,0.519944,-0.980361
-0.476563,-0.816406,0.319336,15.1875,-1.625,86.625,-0.360474,0.444397,-0.244385,0.782837,-1.15496,0.546374,-0.966336
-0.530762,-0.774414,0.322266,18.3125,2,89.9375,-0.351196,0.449585,-0.233704,0.787354,-1.14181,0.574974,-0.952405
-0.554688,-0.730957,0.339355,17.4375,4.75,83.9375,-0.34198,0.454651,-0.223755,0.791321,-1.12849,0.602265,-0.939298
-0.565918,-0.712402,0.348145,11.6875,5.5,78.25,-0.333984,0.459534,-0.214294,0.794556,-1.1174,0.627482,-0.927103
-0.618164,-0.71875,0.340332,7.875,9.25,71.75,-0.326782,0.464844,-0.205383,0.796814,-1.10894,0.651723,-0.917088
-0.623047,-0.708984,0.361816,10.125,10.0625,66.5,-0.319641,0.469543,-0.197632,0.798889,-1.09964,0.673703,-0.90786
-0.635742,-0.673828,0.367676,14.5625,10.5,62.5,-0.312012,0.473816,-0.190674,0.801086,-1.08852,0.694694,-0.898747
-0.648438,-0.605957,0.416992,13.375,11.4375,56.4375,-0.304382,0.477661,-0.184387,0.803223,-1.07658,0.714299,-0.889762
-0.697754,-0.615234,0.388672,11.1875,13.0625,46.9375,-0.297913,0.481567,-0.179138,0.804504,-1.06778,0.731667,-0.883595
-0.697266,-0.581543,0.375488,6.8125,13.75,38.375,-0.292664,0.485352,-0.174683,0.805115,-1.06185,0.746782,-0.879513
-0.711426,-0.600098,0.377441,5.9375,14.125,33.625,-0.288086,0.488831,-0.170959,0.80542,-1.05714,0.760006,-0.876656
-0.72998,-0.583008,0.361328,7.8125,15.375,24.6875,-0.283936,0.492188,-0.168579,0.805359,-1.05395,0.771267,-0.876624
-0.733887,-0.57373,0.341309,6.0625,14.875,20.0625,-0.280457,0.495422,-0.166687,0.804993,-1.05238,0.781191,-0.877861
-0.747559,-0.583496,0.338379,4.625,13.0625,16.5625,-0.277649,0.498291,-0.165039,0.804565,-1.05171,0.789739,-0.879282
-0.748047,-0.585449,0.338379,3.9375,12.1875,12.8125,-0.275391,0.500793,-0.163879,0.804016,-1.05179,0.796667,-0.881289
-0.744141,-0.597168,0.338867,2.125,10.0625,8.4375,-0.273865,0.502747,-0.163208,0.803467,-1.0526,0.801624,-0.88358
-0.748535,-0.598633,0.337402,2.6875,9.0625,3.875,-0.272766,0.504333,-0.163208,0.802856,-1.05397,0.804926,-0.886744
-0.740234,-0.616211,0.332031,1.4375,9.3125,2.625,-0.272156,0.505859,-0.163391,0.802063,-1.05649,0.80745,-0.890562
-0.737305,-0.604004,0.337891,1.5,9.3125,0.9375,-0.271545,0.507202,-0.163757,0.801331,-1.05868,0.809494,-0.894317
-0.739746,-0.607422,0.336914,0.9375,9.5,-3.125,-0.271362,0.508423,-0.164673,0.800415,-1.06195,0.810347,-0.899295
-0.726074,-0.611328,0.333984,-1.125,7.5625,-3.6875,-0.271667,0.509338,-0.165527,0.799561,-1.06558,0.810391,-0.903762
-0.733887,-0.631348,0.328613,1.3125,8.3125,-4.375,-0.27179,0.510315,-0.166687,0.798645,-1.06912,0.810328,-0.90889
-0.732422,-0.622559,0.331055,3,8,-3.25,-0.271545,0.511169,-0.167847,0.797974,-1.07151,0.810517,-0.913419
-0.733398,-0.624512,0.33252,3.25,6.3125,-2.125,-0.271179,0.511841,-0.168823,0.797485,-1.07301,0.810756,-0.91698
-0.72998,-0.624023,0.318848,4.125,6.4375,-1.5,-0.270691,0.512573,-0.169739,0.796936,-1.07433,0.811154,-0.920458
-0.742676,-0.626465,0.316895,2.75,6.4375,-1.6875,-0.270386,0.513489,-0.170532,0.796326,-1.07652,0.811891,-0.924345
-0.740723,-0.628418,0.310547,0.9375,6.5625,-1,-0.270325,0.514465,-0.171082,0.795593,-1.07929,0.812655,-0.928067
-0.745605,-0.632813,0.314453,1.5625,6.3125,-0.5625,-0.270142,0.515381,-0.171631,0.794922,-1.08161,0.813427,-0.931531
-0.73877,-0.633301,0.311035,2.875,5.375,-0.1875,-0.269775,0.516113,-0.172241,0.794434,-1.08307,0.814092,-0.934501
-0.741699,-0.625977,0.313477,2.5,4.8125,-0.5625,-0.26947,0.516785,-0.172791,0.794006,-1.08448,0.814725,-0.93724
-0.731934,-0.614258,0.291992,1.25,5.125,-1.375,-0.269409,0.517639,-0.17334,0.793335,-1.08696,0.815289,-0.94066
-0.741211,-0.631348,0.319824,-0.25,3.3125,-1.8125,-0.269592,0.518005,-0.173767,0.792908,-1.08862,0.815062,-0.942691
-0.743652,-0.621582,0.309082,0.4375,2.6875,-3.6875,-0.269836,0.518372,-0.174438,0.79248,-1.0906,0.814611,-0.945308
-0.745117,-0.636719,0.30957,-0.5,1.625,-2.1875,-0.270203,0.518555,-0.174805,0.792114,-1.09216,0.814006,-0.946852
-0.735352,-0.631348,0.310059,2.0625,1.5625,-1.875,-0.270203,0.518677,-0.175354,0.791931,-1.09283,0.813579,-0.948348
-0.732422,-0.638184,0.321777,3.0625,1.0625,-1.6875,-0.27002,0.518616,-0.176025,0.79187,-1.09265,0.812912,-0.94945
-0.741699,-0.615723,0.316895,3.25,1.6875,-2.875,-0.269775,0.518677,-0.176758,0.791748,-1.09269,0.812419,-0.95097
-0.748535,-0.621094,0.31543,-0.375,0.3125,-3.25,-0.270081,0.518677,-0.177124,0.791565,-1.09362,0.811698,-0.951978
-0.734863,-0.631836,0.313477,-2,-0.0625,-3.25,-0.270752,0.518616,-0.177429,0.791321,-1.09521,0.810605,-0.952977
-0.732422,-0.645996,0.315918,-0.25,-0.0625,-1.625,-0.271118,0.518494,-0.177795,0.791199,-1.09596,0.809665,-0.953699
-0.734863,-0.635254,0.31543,2.3125,0.75,-1.25,-0.270996,0.518494,-0.178223,0.791138,-1.09594,0.8093,-0.954501
-0.733398,-0.631836,0.318848,0.5625,-0.0625,-0.3125,-0.270996,0.518494,-0.178284,0.791138,-1.09598,0.809252,-0.954634
-0.737305,-0.633301,0.312988,-0.125,0.0625,-0.1875,-0.271057,0.518555,-0.178284,0.791077,-1.09628,0.809269,-0.954846
-0.731934,-0.629883,0.322266,-0.0625,-0.6875,0.4375,-0.271057,0.518494,-0.178284,0.791077,-1.09611,0.809129,-0.954668
-0.736328,-0.637695,0.311523,1.0625,-1.3125,1.0625,-0.270996,0.518433,-0.178223,0.791199,-1.09578,0.809252,-0.954342
-0.737793,-0.631348,0.311523,2,-2,0.4375,-0.270813,0.518188,-0.178284,0.791382,-1.09473,0.809014,-0.953661
-0.739258,-0.631836,0.311035,1.9375,-1.125,0.375,-0.27063,0.518066,-0.178345,0.791504,-1.09401,0.808964,-0.953316
-0.738281,-0.622559,0.318848,1.6875,-0.0625,-0.625,-0.270447,0.518005,-0.178589,0.791565,-1.09358,0.808819,-0.953528
-0.731934,-0.624512,0.320313,0.9375,0.75,-1.375,-0.270447,0.518005,-0.178894,0.791504,-1.09377,0.808488,-0.954173
-0.730469,-0.628906,0.318848,0.25,0.6875,-1.1875,-0.270569,0.518066,-0.179138,0.791382,-1.09437,0.80819,-0.954949
-0.736328,-0.62793,0.320801,1.3125,0.125,-0.375,-0.270447,0.518066,-0.179321,0.791382,-1.0942,0.80811,-0.955241
-0.73584,-0.62793,0.317383,1.375,-0.3125,-0.1875,-0.270325,0.518005,-0.179504,0.791443,-1.09387,0.807982,-0.955374
-0.728027,-0.638184,0.318848,1,-0.375,-0.125,-0.270325,0.517883,-0.179688,0.791443,-1.09364,0.807559,-0.955417
-0.734863,-0.62207,0.314453,1.75,0.1875,-0.3125,-0.270142,0.517883,-0.179871,0.791443,-1.09332,0.807511,-0.955657
-0.734375,-0.62793,0.31543,-0.375,-0.1875,0.3125,-0.270142,0.517883,-0.179871,0.791443,-1.09332,0.807511,-0.955657
-0.731934,-0.637207,0.314941,-1.3125,-0.1875,0.75,-0.270386,0.518005,-0.179688,0.791321,-1.0941,0.807624,-0.955787
-0.740234,-0.639648,0.312988,0.3125,0.3125,0.5625,-0.270447,0.518005,-0.179749,0.791321,-1.09429,0.807545,-0.955973
-0.734863,-0.633789,0.312988,1,0.25,1.0625,-0.270325,0.518127,-0.179688,0.79126,-1.09428,0.807844,-0.95607
-0.738281,-0.634277,0.315918,1.125,0.25,1.0625,-0.270142,0.51825,-0.179688,0.79126,-1.09419,0.808219,-0.956266
-0.738281,-0.621582,0.320801,1.625,0.1875,0.6875,-0.269775,0.51825,-0.179749,0.791382,-1.09338,0.808545,-0.956119
-0.737305,-0.630371,0.317871,0.8125,-0.1875,0.5,-0.269775,0.518311,-0.179749,0.791321,-1.09354,0.808593,-0.956277
-0.736816,-0.619629,0.320313,1.0625,-0.1875,0,-0.269653,0.51825,-0.17981,0.791382,-1.09313,0.808561,-0.956146
-0.73584,-0.624023,0.320313,0.125,-0.6875,-0.1875,-0.269653,0.51825,-0.17981,0.791382,-1.09313,0.808561,-0.956146
-0.735352,-0.622559,0.314941,-0.5,-0.5625,-0.875,-0.269653,0.51825,-0.17981,0.791382,-1.09313,0.808561,-0.956146
-0.736816,-0.625977,0.317383,-0.875,-0.4375,-0.625,-0.269653,0.518311,-0.17981,0.791382,-1.0933,0.808701,-0.956323
-0.73877,-0.633789,0.320801,-0.5,-1,-0.8125,-0.269653,0.518311,-0.17981,0.791382,-1.0933,0.808701,-0.956323
-0.733398,-0.632813,0.317383,0.6875,-0.4375,-1.5,-0.269836,0.518127,-0.180115,0.791321,-1.09341,0.807856,-0.956594
-0.730957,-0.628906,0.324707,0.5625,-0.625,-1,-0.269836,0.518127,-0.180115,0.791321,-1.09341,0.807856,-0.956594
-0.73291,-0.630859,0.3125,-0.375,-0.5625,-0.9375,-0.269836,0.518188,-0.180115,0.791321,-1.09358,0.807995,-0.956771
-0.734375,-0.632813,0.316895,0.375,-0.3125,-0.875,-0.269897,0.518188,-0.180115,0.791321,-1.09373,0.807964,-0.956824
-0.735352,-0.630859,0.312988,0.375,-0.5,-0.6875,-0.269897,0.518188,-0.180176,0.79126,-1.09375,0.807824,-0.956938
-0.736816,-0.632324,0.320801,0.125,-0.625,-0.4375,-0.269897,0.518188,-0.180176,0.79126,-1.09375,0.807824,-0.956938
-0.725586,-0.628906,0.315918,-0.0625,-0.25,-0.75,-0.269958,0.518188,-0.180176,0.79126,-1.0939,0.807793,-0.956991
-0.729492,-0.63623,0.322266,0.6875,-0.4375,0,-0.269958,0.518188,-0.180176,0.79126,-1.0939,0.807793,-0.956991
-0.735352,-0.626465,0.317871,0.875,0,-0.8125,-0.269958,0.518188,-0.180176,0.79126,-1.0939,0.807793,-0.956991
-0.732422,-0.630371,0.316406,0.125,-0.1875,-0.4375,-0.27002,0.518188,-0.180176,0.79126,-1.09405,0.807761,-0.957044
-0.737305,-0.632813,0.316895,0.1875,0.0625,-0.625,-0.27002,0.518188,-0.180237,0.791199,-1.09407,0.807622,-0.957158
-0.737305,-0.640137,0.303223,0.5,-0.3125,-0.5625,-0.270081,0.51825,-0.180237,0.791199,-1.0944,0.807729,-0.957388
-0.734863,-0.633301,0.313477,0.9375,-0.6875,-0.6875,-0.270081,0.51825,-0.180237,0.791138,-1.09438,0.807638,-0.95737
-0.737793,-0.629883,0.318359,1.0625,-0.625,-0.5625,-0.27002,0.518127,-0.180359,0.791199,-1.09398,0.807386,-0.957246
-0.737305,-0.633301,0.319336,0.0625,-1.125,-0.625,-0.270203,0.518005,-0.18042,0.79126,-1.09413,0.807055,-0.957201
-0.734375,-0.630371,0.317383,-0.1875,-1.1875,-1.0625,-0.270386,0.517822,-0.180542,0.79126,-1.09413,0.806446,-0.957093
-0.731445,-0.639648,0.316895,-0.3125,-1.375,-0.6875,-0.270691,0.517639,-0.180603,0.79126,-1.09439,0.80582,-0.956958
-0.730957,-0.632813,0.320313,0.5625,-1.625,-0.0625,-0.270752,0.517395,-0.180603,0.791443,-1.0939,0.805504,-0.956359
-0.730469,-0.629395,0.317871,1.0625,-1.625,-0.3125,-0.270752,0.517151,-0.180725,0.791565,-1.09332,0.805033,-0.955955
-0.73584,-0.633789,0.320801,0.25,-2.25,0.0625,-0.270813,0.516846,-0.180664,0.791748,-1.09261,0.804625,-0.955049
-0.730957,-0.635742,0.317871,0.8125,-1.625,-0.4375,-0.270874,0.516602,-0.180786,0.791809,-1.09216,0.804032,-0.954681
-0.731934,-0.641113,0.31543,0.8125,-1.875,-0.4375,-0.271057,0.516357,-0.180847,0.791931,-1.09199,0.803513,-0.954305
-0.727539,-0.640625,0.322266,0.75,-1.625,0,-0.271118,0.516113,-0.180969,0.792053,-1.09156,0.803011,-0.953956
-0.729492,-0.637207,0.319824,0.375,-1.1875,-0.375,-0.27124,0.51593,-0.18103,0.792114,-1.0914,0.802572,-0.953685
-0.72998,-0.634766,0.330566,-0.125,-1.375,0.0625,-0.271362,0.515686,-0.18103,0.792236,-1.09104,0.802133,-0.953126
-0.733887,-0.630859,0.327637,0.625,-1.125,0.1875,-0.271301,0.515564,-0.180969,0.792358,-1.09054,0.802116,-0.952627
-0.739258,-0.630859,0.314941,-0.1875,-1.5625,0.4375,-0.271362,0.515503,-0.180786,0.792419,-1.09041,0.802178,-0.952126
-0.726563,-0.628906,0.322754,-0.375,-1.75,0.3125,-0.271484,0.515259,-0.180664,0.792542,-1.08997,0.801835,-0.951303
-0.722656,-0.632324,0.320801,0,-1.875,0.6875,-0.271545,0.515076,-0.180542,0.792664,-1.08955,0.801662,-0.950602
-0.731445,-0.631836,0.326172,0.5625,-1.375,0.75,-0.271484,0.514893,-0.18042,0.792786,-1.08884,0.801552,-0.949797
-0.734375,-0.629883,0.321289,0.25,-1.9375,0.9375,-0.271484,0.514771,-0.180237,0.792969,-1.08843,0.801688,-0.949106
-0.735352,-0.628418,0.316895,-0.125,-2.375,0.4375,-0.271545,0.514587,-0.179993,0.793091,-1.08793,0.80161,-0.948142
-0.73291,-0.628418,0.314453,-0.4375,-2.75,-0.25,-0.27179,0.514282,-0.179871,0.793213,-1.08761,0.801064,-0.947252
-0.739746,-0.624512,0.317871,-0.3125,-2.75,-1,-0.272034,0.514038,-0.179749,0.793335,-1.08747,0.800657,-0.946538
-0.739746,-0.622559,0.320313,-0.75,-3.6875,-2.125,-0.272339,0.513611,-0.179749,0.793518,-1.08707,0.799796,-0.945638
-0.738281,-0.621094,0.326172,-0.5625,-5,-3.6875,-0.272827,0.512817,-0.179871,0.793823,-1.0862,0.798092,-0.94416
-0.729004,-0.616211,0.32373,-0.375,-6.75,-5.1875,-0.273499,0.51178,-0.180176,0.794189,-1.08524,0.795687,-0.942571
-0.724121,-0.618164,0.321777,-0.6875,-8.75,-6.75,-0.274414,0.510376,-0.180542,0.794678,-1.08394,0.79246,-0.940342
-0.731445,-0.617188,0.326172,-1.5,-11.25,-8.625,-0.275635,0.508606,-0.180908,0.795349,-1.08246,0.788518,-0.937428
-0.726563,-0.617188,0.330078,-1.625,-14,-11.125,-0.2771,0.506348,-0.181519,0.796143,-1.08047,0.783343,-0.933967
-0.727539,-0.625488,0.331543,0.5625,-14.75,-15.875,-0.278748,0.503723,-0.182861,0.796936,-1.07846,0.776695,-0.93129
-0.707031,-0.632813,0.335449,1.5,-15.3125,-18.875,-0.28064,0.500732,-0.184814,0.797668,-1.07651,0.768565,-0.929185
-0.70166,-0.649414,0.352051,6.1875,-12.4375,-22.75,-0.282166,0.497681,-0.187927,0.79834,-1.07433,0.759534,-0.929163
-0.691895,-0.641113,0.345703,7.875,-10.0625,-24.5625,-0.283508,0.494873,-0.191467,0.798767,-1.07261,0.750509,-0.93055
-0.677734,-0.654297,0.366699,6.6875,-7.5625,-26.25,-0.285034,0.492188,-0.195374,0.798889,-1.07181,0.741006,-0.933148
-0.670898,-0.640137,0.379395,5.9375,-0.5,-34.8125,-0.286987,0.490051,-0.200684,0.798218,-1.07406,0.730374,-0.94028
-0.654297,-0.660645,0.371582,1.125,-1.625,-37.0625,-0.289917,0.487732,-0.205872,0.797241,-1.07793,0.71857,-0.947308
-0.655273,-0.70752,0.373047,0.8125,-0.8125,-33.125,-0.292847,0.485779,-0.210693,0.796143,-1.0824,0.707712,-0.954406
-0.64502,-0.705566,0.37207,2.1875,2,-30.9375,-0.295166,0.484253,-0.215393,0.794922,-1.08635,0.698061,-0.96179
-0.62793,-0.712891,0.371582,-0.0625,4.875,-27.1875,-0.297485,0.483276,-0.219604,0.793518,-1.09126,0.689717,-0.96942
-0.619629,-0.728516,0.364746,-3,6.875,-21.75,-0.299744,0.483032,-0.222961,0.791931,-1.09724,0.68335,-0.976934
-0.615723,-0.753906,0.356934,-3.125,7.5625,-16.8125,-0.301697,0.483093,-0.225708,0.790283,-1.10286,0.678172,-0.983657
-0.618652,-0.756348,0.355469,-0.75,8.375,-13,-0.302979,0.483459,-0.228149,0.78894,-1.1076,0.67461,-0.990112
-0.616699,-0.754395,0.337402,0.25,8.4375,-8.1875,-0.303772,0.484131,-0.22998,0.787659,-1.11164,0.672491,-0.995731
-0.628906,-0.748535,0.333008,1.375,8.375,-3.875,-0.303894,0.485107,-0.231201,0.786682,-1.11468,0.672226,-1.00049
-0.637695,-0.744141,0.321289,0.875,8.3125,-0.875,-0.303833,0.486328,-0.231934,0.785706,-1.11765,0.672934,-1.00472
-0.644531,-0.746582,0.320801,0.3125,7,2.75,-0.303589,0.487671,-0.231934,0.784973,-1.1202,0.674865,-1.00772
-0.648438,-0.736328,0.325684,1.125,5.625,5.125,-0.302917,0.488831,-0.231628,0.784607,-1.1213,0.677377,-1.00945
-0.648438,-0.726563,0.325684,2,4.5,6.9375,-0.302002,0.489929,-0.231079,0.784424,-1.12163,0.680333,-1.01044
-0.64502,-0.711914,0.333984,1.25,3.0625,8.5,-0.301025,0.490784,-0.230164,0.784546,-1.12111,0.683505,-1.0101
-0.656738,-0.71582,0.330078,0.6875,2.1875,8.125,-0.300171,0.491638,-0.229187,0.784607,-1.12081,0.686579,-1.00969
-0.658691,-0.705566,0.333984,0.3125,1.1875,7.8125,-0.299377,0.492371,-0.228149,0.78479,-1.12036,0.689575,-1.00893
-0.65625,-0.70752,0.329102,0.5625,0.75,6.6875,-0.298767,0.49292,-0.227234,0.784912,-1.1199,0.691921,-1.00806
-0.651855,-0.70459,0.33252,0.9375,0.1875,6.25,-0.298096,0.493286,-0.22644,0.785156,-1.11894,0.693993,-1.00697
-0.656738,-0.701172,0.344238,0.9375,-0.3125,5.3125,-0.297485,0.49353,-0.225769,0.785461,-1.1179,0.695764,-1.00587
-0.658203,-0.689453,0.34375,-0.3125,-1.3125,3.5625,-0.297119,0.49353,-0.225098,0.785767,-1.11679,0.696892,-1.00431
-0.661621,-0.69873,0.337891,-2.375,-1.625,3.3125,-0.29718,0.493652,-0.224304,0.785889,-1.11683,0.697879,-1.00305
-0.65625,-0.705078,0.340332,-2.3125,-1.3125,3.4375,-0.297302,0.493774,-0.223572,0.78595,-1.11704,0.698705,-1.00194
-0.65332,-0.708496,0.336914,-1.25,-0.5,3.0625,-0.297302,0.493958,-0.223083,0.786011,-1.11725,0.699539,-1.00141
-0.657715,-0.709961,0.337402,0.1875,-0.25,3.0625,-0.297119,0.49408,-0.222656,0.786133,-1.11694,0.700387,-1.00075
-0.65332,-0.710938,0.334473,0.75,-0.1875,3.3125,-0.296875,0.494202,-0.222351,0.786255,-1.11657,0.701175,-1.0003
-0.651367,-0.703613,0.336426,0.375,1.0625,3.5,-0.29657,0.494507,-0.221985,0.786255,-1.11645,0.702266,-1.00011
-0.653809,-0.710449,0.333984,-0.1875,2.125,4.3125,-0.296265,0.495056,-0.221558,0.786133,-1.11688,0.703749,-1.00039
-0.655762,-0.714355,0.338379,0.3125,2.5625,4.9375,-0.295837,0.495605,-0.22113,0.786072,-1.11706,0.705383,-1.00061
-0.658691,-0.703125,0.335449,1.25,3.1875,4.9375,-0.295227,0.496216,-0.220764,0.786011,-1.11701,0.707204,-1.00099
-0.663086,-0.700684,0.328125,1.375,3.8125,5.625,-0.294495,0.49707,-0.220337,0.785889,-1.11726,0.70957,-1.00178
-0.66748,-0.689453,0.337402,1.375,4.375,5.4375,-0.293579,0.497925,-0.21991,0.785767,-1.1171,0.712045,-1.00245
-0.667969,-0.6875,0.336914,1.5,4.3125,5.375,-0.292725,0.498718,-0.219543,0.785706,-1.11698,0.714394,-1.00315
-0.674316,-0.690918,0.330078,1.25,3.8125,4.75,-0.291992,0.499512,-0.219116,0.785583,-1.11709,0.716641,-1.0038
-0.67041,-0.691895,0.334961,1.25,3.5,4.625,-0.291321,0.500183,-0.218811,0.785522,-1.11711,0.718587,-1.00444
-0.676758,-0.688965,0.319336,1.5,3.375,4.3125,-0.290649,0.500977,-0.218506,0.785339,-1.11743,0.720627,-1.00538
-0.677246,-0.692383,0.324219,0.75,2.5,4.4375,-0.2901,0.501648,-0.218079,0.785278,-1.11767,0.7226,-1.00586
-0.683105,-0.687012,0.319824,0.625,2.0625,4.5,-0.289612,0.502258,-0.217529,0.785156,-1.11781,0.724424,-1.00595
-0.677734,-0.699219,0.324707,0.9375,1.625,4.5625,-0.289124,0.502747,-0.217102,0.785156,-1.11773,0.726063,-1.00601
-0.677246,-0.684082,0.32666,1.4375,1.3125,4.3125,-0.288513,0.503113,-0.216736,0.785217,-1.11711,0.727552,-1.0058
-0.679688,-0.682129,0.32373,1.0625,0.8125,4.375,-0.287964,0.503479,-0.216248,0.785339,-1.11657,0.729183,-1.0054
-0.679688,-0.680664,0.33252,0.75,0.0625,4.1875,-0.287476,0.503723,-0.215698,0.785522,-1.11583,0.730653,-1.0046
-0.68457,-0.676758,0.324219,0.75,-0.125,3.5,-0.287048,0.503906,-0.215271,0.785645,-1.11512,0.731781,-1.00392
-0.689453,-0.67627,0.335449,0.6875,-0.8125,2.25,-0.286743,0.503967,-0.214905,0.785889,-1.11444,0.7327,-1.00317
-0.689453,-0.665527,0.332031,1.1875,-2,0.6875,-0.286438,0.503723,-0.214722,0.786133,-1.11305,0.732833,-1.00197
-0.693359,-0.666504,0.319824,2.0625,-4.5625,-1.5625,-0.286377,0.503174,-0.214722,0.78656,-1.11158,0.732284,-1.00058
-0.695801,-0.668457,0.317871,3.625,-7,-4.6875,-0.286499,0.502136,-0.21521,0.787048,-1.10955,0.730304,-0.999066
-0.694824,-0.664551,0.323242,6.3125,-8.8125,-8.8125,-0.28656,0.500488,-0.216309,0.78772,-1.10619,0.726849,-0.997237
-0.685547,-0.651367,0.331055,7.1875,-7.4375,-13.6875,-0.286804,0.498718,-0.218262,0.788208,-1.10341,0.722138,-0.996999
-0.687988,-0.634766,0.337891,4.125,-6.3125,-18.5,-0.287659,0.49707,-0.22052,0.788391,-1.10247,0.716703,-0.998103
-0.669922,-0.634277,0.344238,2.125,-6.4375,-25.4375,-0.289429,0.494934,-0.223572,0.788208,-1.10272,0.708645,-1.00016
-0.645508,-0.651855,0.351563,1.375,-5.25,-33.0625,-0.291992,0.492493,-0.227844,0.787537,-1.10456,0.697958,-1.00442
-0.632813,-0.65918,0.346191,1.9375,-3,-42.4375,-0.295227,0.489868,-0.233521,0.786316,-1.10807,0.684776,-1.01144
-0.630859,-0.683594,0.351563,3.5625,0.0625,-54.25,-0.299133,0.486938,-0.24115,0.784363,-1.11311,0.668234,-1.02196
-0.594238,-0.69043,0.34668,4.0625,3.25,-61.9375,-0.303528,0.483948,-0.250061,0.781738,-1.11946,0.649565,-1.03503
-0.595215,-0.729492,0.354492,4.9375,5.375,-73.25,-0.308716,0.48053,-0.260742,0.77832,-1.12704,0.627375,-1.05086
-0.619141,-0.724609,0.337402,3.4375,2.5,-91.125,-0.315308,0.476196,-0.273071,0.774109,-1.13586,0.600497,-1.06833
-0.508789,-0.748535,0.326172,-1.1875,-6,-82.875,-0.322815,0.470825,-0.283936,0.770386,-1.1435,0.572954,-1.08088
-0.52832,-0.807129,0.30957,3.4375,-5,-81.1875,-0.329529,0.465698,-0.294739,0.766541,-1.14986,0.546504,-1.09341
-0.561035,-0.79541,0.311523,6.9375,-10.25,-88.5,-0.336182,0.459534,-0.30603,0.762939,-1.15402,0.518329,-1.1047
-0.509277,-0.783691,0.318359,3.875,-17.625,-97.5625,-0.344177,0.451782,-0.317871,0.759216,-1.15779,0.486113,-1.11436
-0.421387,-0.780762,0.383789,11.375,-16.5,-109.563,-0.352051,0.442261,-0.332214,0.755005,-1.15859,0.448823,-1.12546
-0.45752,-0.898926,0.36377,-3.3125,-20.6875,-105.813,-0.361755,0.433228,-0.344543,0.750122,-1.16354,0.412244,-1.13445
-0.394531,-0.944824,0.387207,10.0625,-25.6875,-89.375,-0.368958,0.423584,-0.355347,0.74707,-1.16232,0.379739,-1.13907
-0.210449,-0.954102,0.458496,24,-22.4375,-81.375,-0.373962,0.412415,-0.367432,0.745056,-1.15474,0.346633,-1.14345
-0.289551,-0.916992,0.44043,36,-18.8125,-62.0625,-0.375061,0.403015,-0.377136,0.744751,-1.14253,0.32298,-1.14614
-0.277832,-0.86377,0.377441,19.25,-25.4375,-47.3125,-0.377808,0.395325,-0.383057,0.744446,-1.13596,0.303804,-1.14517
-0.268066,-0.896973,0.391113,6.8125,-29,-37.6875,-0.381775,0.388611,-0.386536,0.744141,-1.13312,0.287153,-1.14153
-0.286133,-0.961914,0.382813,2.0625,-29.5625,-26.375,-0.385803,0.38324,-0.388062,0.744141,-1.13247,0.274367,-1.13647
-0.308594,-0.957031,0.362793,5.125,-30.9375,-16.3125,-0.388794,0.378479,-0.388062,0.744995,-1.13063,0.265279,-1.12933
-0.29834,-0.934082,0.373535,10.0625,-30.4375,-13.9375,-0.390747,0.373596,-0.388062,0.746399,-1.12671,0.257264,-1.12191
-0.249023,-0.970215,0.421875,21.4375,-28.8125,-9.4375,-0.390991,0.367859,-0.388794,0.748779,-1.11839,0.249439,-1.11445
-0.233887,-0.935547,0.463867,36.6875,-26.125,-18.4375,-0.389343,0.360535,-0.391846,0.751587,-1.10443,0.239093,-1.10893
-0.20752,-0.874023,0.492676,38.5,-22.625,-14.875,-0.386658,0.353455,-0.394897,0.7547,-1.08901,0.23015,-1.10388
-0.177734,-0.812988,0.514648,31.5,-17.4375,-17.1875,-0.384399,0.347107,-0.398315,0.757019,-1.07574,0.221106,-1.10095
-0.17334,-0.810547,0.508789,14.375,-13.25,-19.0625,-0.384277,0.342468,-0.401123,0.757751,-1.06914,0.212318,-1.09976
-0.205078,-0.887695,0.523926,0.3125,-8.8125,-13.125,-0.385437,0.340088,-0.402405,0.757507,-1.06809,0.206499,-1.099
-0.192383,-0.907715,0.526367,-0.1875,-3.5625,-7,-0.386047,0.338867,-0.403259,0.757324,-1.06763,0.203308,-1.09903
-0.200195,-0.890137,0.510254,2,1.5625,-5.75,-0.385925,0.338318,-0.404358,0.757019,-1.06674,0.201483,-1.10039
-0.189453,-0.867188,0.494141,-4.5,3.1875,-1.4375,-0.386292,0.338745,-0.404602,0.75647,-1.06808,0.201268,-1.10151
-0.182129,-0.884766,0.478027,-10.3125,3.4375,3,-0.38739,0.339966,-0.403992,0.755737,-1.0719,0.20222,-1.1022
-0.19873,-0.905762,0.46875,-9.25,3.9375,5.625,-0.388245,0.341492,-0.403015,0.755127,-1.07563,0.204219,-1.10257
-0.22168,-0.898438,0.452148,-5.75,2.8125,6.8125,-0.38855,0.343018,-0.401855,0.754944,-1.0783,0.207114,-1.10254
-0.236328,-0.896973,0.452148,-4.375,2.875,4.8125,-0.388672,0.34436,-0.40094,0.7547,-1.08035,0.209641,-1.10267
-0.238281,-0.905762,0.45166,-3.375,3.25,3.75,-0.388794,0.345581,-0.400269,0.754456,-1.08229,0.211787,-1.10315
-0.233887,-0.892578,0.45752,-1.1875,2.8125,2.875,-0.38855,0.346497,-0.399902,0.754333,-1.0831,0.213605,-1.10372
-0.223145,-0.883301,0.457031,0.4375,2.1875,2.625,-0.388245,0.346985,-0.399719,0.754395,-1.08321,0.214797,-1.10404
-0.228027,-0.875488,0.455566,0.6875,0.4375,2.5,-0.387939,0.347351,-0.399353,0.754517,-1.08308,0.21599,-1.1038
-0.226074,-0.887207,0.459961,-1,-0.8125,2.5625,-0.388062,0.347595,-0.398865,0.754639,-1.08363,0.216742,-1.10323
-0.226074,-0.900879,0.463379,-1.0625,-0.9375,2.875,-0.388123,0.347778,-0.398315,0.754761,-1.08392,0.217499,-1.10241
-0.212402,-0.898438,0.468262,1.75,0.625,3.375,-0.387817,0.3479,-0.398071,0.755066,-1.0835,0.218348,-1.10209
-0.21582,-0.875488,0.469238,1.6875,1.3125,3.6875,-0.387268,0.348145,-0.397827,0.75531,-1.08274,0.219542,-1.10188
-0.230469,-0.874023,0.46875,-1.5625,1.625,4.875,-0.386963,0.348816,-0.397156,0.755493,-1.08304,0.221494,-1.1015
-0.228516,-0.887695,0.460938,-3.25,1.375,5.625,-0.387024,0.34967,-0.396301,0.755554,-1.08431,0.22349,-1.1011
-0.233398,-0.910156,0.462402,-2.5,2.5625,5.375,-0.386963,0.350647,-0.395569,0.755493,-1.08553,0.22559,-1.10109
-0.253906,-0.889648,0.460938,-0.25,4.375,6.6875,-0.38623,0.351868,-0.394836,0.755676,-1.08581,0.228791,-1.10135
-0.229492,-0.881836,0.461914,-2.5625,4.625,8.625,-0.385742,0.35321,-0.393921,0.755798,-1.08673,0.232086,-1.10148
-0.231445,-0.880371,0.465332,-4.6875,4.25,11.3125,-0.385376,0.354797,-0.392456,0.756042,-1.08819,0.236187,-1.10094
-0.24707,-0.892578,0.460449,-2.4375,5,12.4375,-0.384644,0.356445,-0.390991,0.756348,-1.089,0.240727,-1.10041
-0.254883,-0.88916,0.453613,-1.6875,5.0625,12.8125,-0.383728,0.358215,-0.389465,0.756775,-1.08966,0.245745,-1.09995
-0.256348,-0.887695,0.445801,-0.8125,4.625,11.5,-0.382935,0.359741,-0.388184,0.757141,-1.09024,0.250049,-1.09964
-0.255371,-0.879395,0.446289,-0.75,4.0625,11.0625,-0.382141,0.361145,-0.386902,0.757507,-1.09062,0.254165,-1.09913
-0.259766,-0.885742,0.45166,-0.375,3.5,11.75,-0.381287,0.362427,-0.385559,0.757996,-1.0907,0.258281,-1.09832
-0.273926,-0.879883,0.451172,0.5625,3.0625,11.25,-0.38031,0.363647,-0.384277,0.758606,-1.09048,0.262444,-1.09755
-0.283691,-0.875488,0.449707,0.875,2.625,10.4375,-0.379272,0.364807,-0.383057,0.759155,-1.09003,0.266467,-1.09676
-0.27832,-0.870117,0.443359,-0.9375,1.6875,9.1875,-0.378723,0.365784,-0.381775,0.759583,-1.09024,0.269772,-1.09566
-0.282715,-0.87207,0.448242,-1.8125,0.75,8.8125,-0.378357,0.366699,-0.380493,0.76001,-1.09073,0.272838,-1.09452
-0.284668,-0.87793,0.452148,-0.8125,-0.0625,9,-0.377869,0.367432,-0.379211,0.760498,-1.09068,0.27576,-1.09306
-0.287598,-0.881348,0.445801,0.5,-0.25,9,-0.377319,0.368042,-0.377991,0.761108,-1.09035,0.278583,-1.09154
-0.290039,-0.874023,0.45459,1.4375,0.25,8.4375,-0.376526,0.368591,-0.376953,0.761719,-1.08947,0.281358,-1.09022
-0.287598,-0.870117,0.449707,0.5625,1,7.3125,-0.375977,0.369202,-0.376038,0.762146,-1.08918,0.283803,-1.08929
-0.286621,-0.865723,0.456055,0.25,0.75,6.5625,-0.375427,0.36969,-0.375244,0.762573,-1.08873,0.285959,-1.08841
-0.287598,-0.864258,0.457031,-0.25,0.5,6.25,-0.375,0.370178,-0.374451,0.762939,-1.08852,0.287973,-1.08755
-0.296387,-0.87207,0.456055,-0.1875,0.5625,6.375,-0.374573,0.370667,-0.373596,0.763367,-1.0883,0.290082,-1.08658
-0.301758,-0.877441,0.45459,0.8125,1.3125,5.5,-0.374023,0.371216,-0.372986,0.763672,-1.08798,0.292099,-1.08615
-0.297363,-0.870605,0.452637,0.75,2.25,5,-0.373474,0.371826,-0.372559,0.763855,-1.08779,0.293977,-1.08617
-0.294434,-0.864746,0.451172,-0.25,3,5.0625,-0.372986,0.372559,-0.37207,0.763977,-1.08789,0.296002,-1.08628
-0.29834,-0.869141,0.449219,-1.3125,3.3125,5.3125,-0.372681,0.373474,-0.37146,0.763977,-1.08862,0.298178,-1.08647
-0.302734,-0.875,0.45459,-1,3.5,5.875,-0.372192,0.374329,-0.37085,0.764038,-1.08888,0.300448,-1.08652
-0.312988,-0.864258,0.447266,-0.25,3.625,5.3125,-0.371643,0.375305,-0.370361,0.764099,-1.08926,0.302865,-1.08701
-0.311523,-0.873047,0.438965,-0.4375,3.5,4.9375,-0.371216,0.376221,-0.369812,0.764099,-1.08976,0.305091,-1.0873
-0.314941,-0.872559,0.448242,0.5625,3.25,4.3125,-0.370667,0.376953,-0.369446,0.76416,-1.08978,0.307024,-1.08764
-0.310547,-0.86084,0.442383,0.3125,2.875,4.5,-0.370178,0.377686,-0.36908,0.764221,-1.08992,0.30891,-1.088
-0.314941,-0.864258,0.436035,-0.4375,1.9375,4.625,-0.369934,0.378357,-0.368469,0.764343,-1.09041,0.310748,-1.08784
-0.319336,-0.87207,0.442871,-1,1.5625,4.9375,-0.36969,0.379028,-0.367859,0.764404,-1.09087,0.312538,-1.08767
-0.32373,-0.875977,0.439941,-0.1875,1.1875,4.8125,-0.369385,0.379639,-0.367188,0.764526,-1.09111,0.314373,-1.08727
-0.330078,-0.865723,0.440918,0.6875,0.9375,5.5625,-0.368835,0.380249,-0.366516,0.764893,-1.09091,0.316593,-1.08686
-0.327148,-0.858398,0.437988,0.8125,0.375,5.875,-0.368347,0.380737,-0.365723,0.765259,-1.09058,0.318665,-1.086
-0.331055,-0.869141,0.44873,0.5625,0,5.75,-0.367859,0.381165,-0.364929,0.765625,-1.09014,0.320639,-1.08503
-0.325684,-0.859375,0.451172,0.75,-0.25,5.3125,-0.367371,0.381409,-0.364258,0.766052,-1.08944,0.322272,-1.08402
-0.324219,-0.86084,0.446289,0.375,-0.375,5.625,-0.367004,0.381714,-0.363525,0.766418,-1.08907,0.323909,-1.08301
-0.33252,-0.858887,0.449219,0.25,-0.8125,5.625,-0.366638,0.381958,-0.362732,0.766846,-1.08858,0.325543,-1.08178
-0.332031,-0.858887,0.443359,-0.125,-0.5625,6,-0.366333,0.382324,-0.361816,0.767273,-1.0884,0.327422,-1.08054
-0.335938,-0.865234,0.438477,-0.375,-0.3125,5.375,-0.366089,0.382813,-0.361023,0.767517,-1.08854,0.329212,-1.07974
-0.333496,-0.868652,0.450195,0,0,4.8125,-0.365845,0.383118,-0.360352,0.767822,-1.08843,0.33066,-1.07888
-0.32959,-0.857422,0.449707,0.5625,0,4.5,-0.365479,0.383301,-0.359863,0.768127,-1.0879,0.331861,-1.07815
-0.333496,-0.854004,0.452148,0.3125,-0.125,5.625,-0.365051,0.383606,-0.359131,0.768494,-1.0874,0.333545,-1.07712
-0.339844,-0.849121,0.444824,-0.6875,0.125,5.5,-0.364685,0.384033,-0.358337,0.768799,-1.0872,0.33538,-1.07618
-0.337402,-0.855469,0.443359,-1.375,0.125,5,-0.364563,0.384521,-0.357544,0.768982,-1.08758,0.33703,-1.07541
-0.343262,-0.859863,0.443359,-1.4375,0.3125,4.5,-0.364502,0.384949,-0.356873,0.769165,-1.08803,0.338441,-1.07481
-0.34375,-0.863281,0.443359,-0.3125,0.375,4.375,-0.364258,0.385376,-0.356262,0.769287,-1.08809,0.339894,-1.07424
-0.339844,-0.851563,0.442871,0.4375,0.1875,4,-0.363953,0.38562,-0.355774,0.769592,-1.0878,0.34115,-1.07364
-0.339844,-0.857422,0.439453,-0.75,-0.125,3.8125,-0.363892,0.385925,-0.355225,0.769714,-1.08806,0.342219,-1.07306
-0.343262,-0.862305,0.444824,-0.5625,-0.3125,4.125,-0.36377,0.386169,-0.354614,0.769897,-1.08807,0.343331,-1.07223
-0.348145,-0.859863,0.446289,-0.6875,0.25,4.1875,-0.363586,0.386536,-0.354004,0.770081,-1.08817,0.34469,-1.07161
-0.346191,-0.852051,0.441895,-0.625,-0.0625,4.5,-0.363403,0.386902,-0.353333,0.770325,-1.08828,0.346147,-1.07087
-0.355469,-0.853516,0.444336,-1.375,-0.4375,4.6875,-0.363281,0.387268,-0.352539,0.770508,-1.08844,0.347602,-1.06989
-0.349609,-0.855957,0.436035,-1.75,-0.5,5,-0.363281,0.387695,-0.351746,0.770691,-1.08898,0.349067,-1.06906
-0.351074,-0.860352,0.445801,-1,0.0625,5.375,-0.363098,0.388123,-0.350952,0.770935,-1.08914,0.35072,-1.06819
-0.349121,-0.856934,0.443359,-0.0625,0.1875,5.625,-0.362793,0.388489,-0.35022,0.77124,-1.08899,0.352369,-1.0673
-0.353516,-0.856934,0.437012,-0.3125,0,5.6875,-0.362488,0.388855,-0.349426,0.771484,-1.08878,0.354014,-1.06627
-0.356445,-0.849609,0.439941,-0.1875,0,5.4375,-0.362183,0.389282,-0.348694,0.77179,-1.08873,0.355764,-1.0655
-0.362305,-0.849121,0.441895,-0.25,0.3125,4.9375,-0.361877,0.389709,-0.348022,0.772034,-1.08869,0.357416,-1.06484
-0.359863,-0.848633,0.441406,0.1875,0.25,4.8125,-0.361511,0.390015,-0.347351,0.772339,-1.08831,0.358964,-1.06395
-0.366211,-0.843262,0.439941,0.3125,0.75,4.3125,-0.361084,0.390442,-0.346802,0.772583,-1.08805,0.360614,-1.0635
-0.364746,-0.849609,0.4375,-0.125,1,4.0625,-0.360779,0.39093,-0.346313,0.772705,-1.08815,0.362125,-1.06329
-0.368652,-0.850098,0.442871,-0.25,1.25,3.3125,-0.360535,0.391357,-0.345886,0.772766,-1.08826,0.363393,-1.0631
-0.362305,-0.845215,0.431152,-0.3125,1.625,2.6875,-0.360352,0.391846,-0.345581,0.772766,-1.08865,0.364571,-1.06328
-0.364258,-0.852539,0.435059,0.375,1.5625,2.5625,-0.360107,0.392212,-0.345398,0.772766,-1.08872,0.365499,-1.06347
-0.365234,-0.841797,0.437012,0.3125,1.5,2,-0.359863,0.392578,-0.345215,0.772766,-1.0888,0.366427,-1.06366
-0.370605,-0.857422,0.430664,0.0625,1.625,1.875,-0.359741,0.393005,-0.345032,0.772705,-1.08923,0.367314,-1.064
-0.371582,-0.837891,0.443359,0.4375,1.5625,0.75,-0.359497,0.39325,-0.345032,0.772705,-1.08916,0.367899,-1.06435
-0.367676,-0.847656,0.437012,-0.4375,1.25,1.1875,-0.359436,0.393555,-0.34491,0.772644,-1.08952,0.368492,-1.06461
-0.375,-0.850586,0.435547,-0.25,0.8125,1.1875,-0.359314,0.39386,-0.344727,0.772583,-1.08973,0.369178,-1.06472
-0.378906,-0.850098,0.442383,0.3125,0.75,1.25,-0.359131,0.394043,-0.344604,0.772644,-1.08965,0.369762,-1.06475
-0.371094,-0.853027,0.429199,0,0.6875,1.25,-0.359131,0.394348,-0.344482,0.772583,-1.09014,0.37031,-1.06504
-0.378418,-0.854492,0.442383,0.5625,0.4375,1,-0.358948,0.39447,-0.34436,0.772644,-1.08995,0.370794,-1.06495
-0.371094,-0.842285,0.431152,0,-0.0625,0.75,-0.358948,0.39447,-0.34436,0.772644,-1.08995,0.370794,-1.06495
-0.375,-0.849609,0.436035,-0.1875,-0.625,1.125,-0.358948,0.394531,-0.344116,0.772705,-1.08999,0.371135,-1.06458
-0.372559,-0.854004,0.433105,-0.375,-0.625,1.3125,-0.359009,0.394653,-0.343872,0.772705,-1.09025,0.37148,-1.06432
-0.373535,-0.855469,0.427734,0.5625,-0.625,1.375,-0.359009,0.394714,-0.343689,0.772766,-1.09031,0.371774,-1.06407
-0.375488,-0.849121,0.433105,0.6875,-1,0.875,-0.359009,0.394714,-0.343628,0.772766,-1.09029,0.371821,-1.06394
-0.373535,-0.847656,0.438965,0.875,-1.4375,1.1875,-0.358887,0.394592,-0.343445,0.77301,-1.08982,0.372057,-1.06337
-0.373535,-0.848633,0.4375,0.9375,-1.5625,1.5,-0.358826,0.39447,-0.343201,0.773193,-1.08943,0.372242,-1.06267
-0.377441,-0.847168,0.445313,1.5,-1.6875,1.75,-0.358521,0.394226,-0.342957,0.77356,-1.08837,0.37256,-1.06171
-0.376465,-0.842773,0.438965,0.375,-1.4375,1.4375,-0.358459,0.394165,-0.342651,0.773743,-1.08807,0.372893,-1.061
-0.374023,-0.844727,0.441406,-0.4375,-1.4375,1.3125,-0.358521,0.394104,-0.342346,0.773865,-1.08801,0.373085,-1.06032
-0.374512,-0.853516,0.435059,0.3125,-1.375,1.375,-0.358582,0.394043,-0.342102,0.773987,-1.08798,0.37323,-1.05976
-0.380371,-0.847656,0.443359,1.6875,-1.4375,1.1875,-0.358276,0.39386,-0.341919,0.774292,-1.08702,0.373549,-1.05902
-0.368652,-0.841797,0.438477,1.1875,-1.125,1.25,-0.358154,0.393738,-0.341797,0.774475,-1.08656,0.373685,-1.05855
-0.376465,-0.837402,0.437988,0.5625,-0.8125,1.0625,-0.358032,0.393738,-0.341614,0.774658,-1.08629,0.37407,-1.05819
-0.376465,-0.844238,0.441895,-0.4375,-0.625,0.875,-0.358032,0.393738,-0.341614,0.774658,-1.08629,0.37407,-1.05819
-0.371582,-0.852051,0.445801,-0.625,-0.5,0.6875,-0.358032,0.393738,-0.341614,0.774658,-1.08629,0.37407,-1.05819
-0.373535,-0.845703,0.446777,1.0625,-0.625,0.8125,-0.35791,0.393616,-0.341553,0.77478,-1.08582,0.374107,-1.05783
-0.378906,-0.84082,0.442871,1,-0.25,0.75,-0.357666,0.393555,-0.341492,0.774963,-1.08523,0.374386,-1.05755
-0.384277,-0.841309,0.444824,0.375,-0.1875,0.8125,-0.357666,0.393616,-0.341431,0.774963,-1.08532,0.374534,-1.05753
-0.378906,-0.841797,0.44043,-1.25,-0.125,0.3125,-0.357788,0.393738,-0.341309,0.774902,-1.08573,0.37469,-1.05753
-0.377441,-0.848145,0.433594,-1,-0.0625,0.125,-0.357849,0.393738,-0.341309,0.774841,-1.08584,0.374594,-1.05754
-0.373047,-0.850586,0.43457,0.4375,-0.0625,0.1875,-0.357849,0.393738,-0.341309,0.774841,-1.08584,0.374594,-1.05754
-0.374512,-0.847168,0.444336,1.1875,0,0.4375,-0.357666,0.393738,-0.341309,0.774963,-1.0855,0.374832,-1.0575
-0.377441,-0.842285,0.437988,0.9375,-0.125,0.1875,-0.357666,0.393738,-0.341309,0.774902,-1.08547,0.37478,-1.05748
-0.375977,-0.843262,0.436035,0.125,-0.1875,0.3125,-0.357727,0.393738,-0.341309,0.774902,-1.0856,0.374735,-1.05751
-0.374023,-0.84082,0.438477,0.1875,-0.625,0.3125,-0.357727,0.393738,-0.341309,0.774902,-1.0856,0.374735,-1.05751
-0.376465,-0.847168,0.435547,0.5,-0.5625,0.6875,-0.357727,0.393799,-0.341309,0.774902,-1.08572,0.374837,-1.05762
-0.377441,-0.842285,0.440918,1.5625,-0.625,0.625,-0.357483,0.393677,-0.341248,0.775085,-1.08501,0.375014,-1.05723
-0.375977,-0.844727,0.438477,1.3125,-0.75,0.5,-0.357361,0.393555,-0.341187,0.775208,-1.08455,0.375051,-1.05687
-0.380371,-0.839844,0.441895,0.375,-1.3125,0.375,-0.357361,0.393494,-0.341064,0.77533,-1.08443,0.375146,-1.05655
-0.374023,-0.847656,0.437988,0.0625,-1.125,0.3125,-0.357483,0.393372,-0.340942,0.775391,-1.08444,0.374999,-1.05614
-0.371582,-0.851074,0.446777,1.0625,-1.1875,0.75,-0.357422,0.393188,-0.340881,0.775513,-1.08399,0.374888,-1.05569
-0.371094,-0.849609,0.446289,1.125,-0.9375,1.25,-0.3573,0.393005,-0.340759,0.775696,-1.08341,0.374921,-1.05511
-0.377441,-0.841309,0.444336,0.875,-0.9375,1.25,-0.357117,0.392944,-0.340576,0.775879,-1.0829,0.375248,-1.0546
-0.377441,-0.838867,0.447266,0.25,-0.75,0.9375,-0.357117,0.392944,-0.340576,0.775879,-1.0829,0.375248,-1.0546
-0.376953,-0.844238,0.44873,-0.1875,-1,1,-0.357117,0.392883,-0.340393,0.776001,-1.08276,0.37539,-1.05415
-0.379395,-0.843262,0.443359,0.9375,-1,1.4375,-0.356934,0.392822,-0.340149,0.776245,-1.08225,0.375816,-1.05354
-0.379395,-0.838867,0.44873,1,-1.125,1.5,-0.35675,0.3927,-0.339966,0.776489,-1.08165,0.376093,-1.05294
-0.385254,-0.841309,0.445313,0.5,-1.4375,1.375,-0.356628,0.3927,-0.339661,0.776672,-1.08133,0.376571,-1.05231
-0.380859,-0.837402,0.440918,-0.75,-1.1875,0.5,-0.35675,0.392639,-0.339417,0.776733,-1.08141,0.376618,-1.05176
-0.371094,-0.84668,0.446777,-0.8125,-1.625,0.875,-0.356995,0.392517,-0.339172,0.776794,-1.08163,0.376475,-1.05115
-0.376953,-0.846191,0.442383,1.0625,-1.3125,1,-0.356873,0.392395,-0.33905,0.776978,-1.08116,0.376608,-1.05068
-0.377441,-0.835449,0.438477,1,-1.25,0.5625,-0.356812,0.392273,-0.338928,0.777161,-1.08083,0.376697,-1.05024
-0.378418,-0.845703,0.432617,-0.125,-1.0625,0.8125,-0.356934,0.392273,-0.338684,0.777161,-1.08099,0.376796,-1.04978
-0.380859,-0.835449,0.445313,-0.125,-0.875,0.25,-0.356934,0.392273,-0.338684,0.777161,-1.08099,0.376796,-1.04978
-0.370117,-0.847168,0.455566,-0.25,-0.625,0.5625,-0.356934,0.392273,-0.338684,0.777161,-1.08099,0.376796,-1.04978
-0.377441,-0.839844,0.444336,0.75,-0.5625,0.5625,-0.356934,0.392273,-0.338684,0.777161,-1.08099,0.376796,-1.04978
-0.375977,-0.843262,0.443848,0.5625,-0.1875,0.6875,-0.356934,0.392273,-0.338684,0.777161,-1.08099,0.376796,-1.04978
-0.379395,-0.837891,0.443848,0.375,-0.25,0.3125,-0.356934,0.392273,-0.338684,0.777161,-1.08099,0.376796,-1.04978
-0.378906,-0.841797,0.443359,-0.5,0.0625,0.1875,-0.356934,0.392273,-0.338684,0.777161,-1.08099,0.376796,-1.04978
-0.381836,-0.841797,0.443848,-0.0625,0.25,-0.0625,-0.356934,0.392334,-0.338684,0.777161,-1.0811,0.376898,-1.0499
-0.376465,-0.844238,0.439453,0.4375,0.1875,-0.25,-0.356995,0.392334,-0.338684,0.7771,-1.08121,0.376802,-1.0499
-0.377441,-0.84082,0.446777,-0.125,0.1875,-0.625,-0.356995,0.392334,-0.338684,0.7771,-1.08121,0.376802,-1.0499
-0.384766,-0.847168,0.443848,-0.125,-0.25,-0.5625,-0.356995,0.392334,-0.338684,0.7771,-1.08121,0.376802,-1.0499
-0.380371,-0.847168,0.445801,0.125,-0.5,0,-0.356995,0.392334,-0.338684,0.7771,-1.08121,0.376802,-1.0499
-0.382324,-0.841797,0.445801,0.5625,-0.625,1.375,-0.356873,0.392395,-0.33844,0.777283,-1.08103,0.377335,-1.04952
-0.379883,-0.839355,0.442871,0,-0.4375,1.75,-0.35675,0.392456,-0.338135,0.777344,-1.08078,0.377811,-1.04896
-0.384277,-0.844727,0.440918,-1.1875,-0.1875,1.625,-0.356873,0.3927,-0.33783,0.777344,-1.08137,0.378365,-1.04882
-0.379395,-0.850098,0.442871,-0.6875,-0.1875,1.625,-0.356934,0.392883,-0.337524,0.777405,-1.08174,0.378913,-1.04857
-0.381348,-0.848633,0.445313,1,0.1875,1.6875,-0.356689,0.392944,-0.337402,0.777466,-1.0813,0.379338,-1.04835
-0.378418,-0.837891,0.446777,0.875,0.375,1.875,-0.356445,0.393066,-0.337219,0.777649,-1.08099,0.380016,-1.04815
-0.378906,-0.836426,0.444824,0.1875,0.375,1.625,-0.356262,0.393188,-0.337036,0.77771,-1.08078,0.380545,-1.04794
-0.385742,-0.84375,0.445801,-0.4375,0.375,1.1875,-0.356262,0.393433,-0.336853,0.77771,-1.08115,0.381095,-1.04801
-0.385742,-0.844727,0.446777,0.375,0.3125,1.25,-0.356079,0.393555,-0.336731,0.777771,-1.08096,0.381578,-1.04792
-0.384766,-0.844727,0.445313,0.875,0.5625,1.0625,-0.355896,0.393677,-0.33667,0.777832,-1.08079,0.382014,-1.04797
-0.383301,-0.839355,0.439941,1,0.4375,0.75,-0.355713,0.393799,-0.336609,0.777832,-1.08059,0.382398,-1.04799
-0.385254,-0.838867,0.442383,0.1875,0.1875,0.8125,-0.355713,0.393799,-0.336609,0.777832,-1.08059,0.382398,-1.04799
-0.390137,-0.842285,0.443848,-0.25,-0.125,0.875,-0.355713,0.393799,-0.336609,0.777832,-1.08059,0.382398,-1.04799
-0.38623,-0.845703,0.442871,0.5,-0.25,1.1875,-0.355591,0.393921,-0.336426,0.777893,-1.08051,0.382884,-1.0478
-0.386719,-0.839844,0.453125,0.6875,-0.125,1.1875,-0.355408,0.393921,-0.336304,0.778076,-1.08013,0.383266,-1.04753
-0.382324,-0.833984,0.443848,0.1875,-0.25,1.1875,-0.355286,0.393921,-0.336121,0.778198,-1.07984,0.383598,-1.04714
-0.389648,-0.840332,0.444824,0.1875,-0.4375,0.8125,-0.355286,0.393982,-0.336121,0.778137,-1.07993,0.383649,-1.04723
-0.385254,-0.839355,0.443359,0.125,-0.5,0.875,-0.355347,0.393982,-0.336121,0.778137,-1.08006,0.383604,-1.04726
-0.387695,-0.841797,0.4375,0.5,-0.625,0.9375,-0.355347,0.393982,-0.336121,0.778137,-1.08006,0.383604,-1.04726
-0.384277,-0.834473,0.445801,0.375,-0.4375,0.6875,-0.355347,0.393982,-0.336121,0.778137,-1.08006,0.383604,-1.04726
-0.384766,-0.840332,0.444824,-0.375,-0.0625,0.8125,-0.355347,0.393982,-0.336121,0.778137,-1.08006,0.383604,-1.04726
-0.385742,-0.838379,0.442871,0.1875,-0.25,0.8125,-0.355347,0.394043,-0.336121,0.778137,-1.08017,0.383707,-1.04737
-0.387695,-0.841309,0.443848,0.0625,0.0625,1,-0.355286,0.394104,-0.335938,0.778137,-1.08008,0.383994,-1.04708
-0.390137,-0.835938,0.439453,0.4375,0.125,0.9375,-0.355286,0.394165,-0.335938,0.778137,-1.08019,0.384096,-1.04719
-0.387207,-0.839355,0.443848,-0.125,0.25,0.75,-0.355286,0.394165,-0.335938,0.778137,-1.08019,0.384096,-1.04719
-0.388184,-0.844727,0.437988,-0.3125,0.125,0.8125,-0.355286,0.394165,-0.335938,0.778137,-1.08019,0.384096,-1.04719
-0.387207,-0.838867,0.441406,0.625,0,0.5,-0.355286,0.394226,-0.335938,0.778137,-1.08031,0.384199,-1.0473
-0.389648,-0.841797,0.440918,0.4375,0.1875,0.8125,-0.355286,0.394226,-0.335876,0.778137,-1.08028,0.384246,-1.04717
-0.390625,-0.843262,0.447266,0.5,-0.25,0.9375,-0.355286,0.394226,-0.335876,0.778137,-1.08028,0.384246,-1.04717
-0.387695,-0.82666,0.444336,0.3125,0,0.8125,-0.355286,0.394226,-0.335876,0.778137,-1.08028,0.384246,-1.04717
-0.384766,-0.838867,0.44043,-0.8125,-0.3125,1.125,-0.355408,0.394348,-0.335632,0.778137,-1.08067,0.384549,-1.04694
-0.392578,-0.834961,0.447266,0.25,-0.5,1,-0.355225,0.394409,-0.335449,0.778259,-1.08036,0.385029,-1.04664
-0.39209,-0.838867,0.444824,0.5625,-0.375,1.3125,-0.355103,0.39447,-0.335266,0.778381,-1.08018,0.385464,-1.04636
-0.393066,-0.833496,0.446289,0.5,-0.375,1.1875,-0.354919,0.394531,-0.335022,0.778564,-1.07987,0.386042,-1.04595
-0.391113,-0.835938,0.437012,-0.1875,-0.1875,1.0625,-0.354858,0.394714,-0.334839,0.778564,-1.08,0.386534,-1.04588
-0.392578,-0.838867,0.436035,-0.4375,-0.0625,0.9375,-0.354919,0.394714,-0.334778,0.778564,-1.08011,0.386537,-1.04578
-0.388184,-0.841797,0.446289,0.25,-0.0625,0.5,-0.354919,0.394714,-0.334778,0.778564,-1.08011,0.386537,-1.04578
-0.384766,-0.838867,0.446777,0.3125,-0.0625,0.6875,-0.354919,0.394714,-0.334778,0.778564,-1.08011,0.386537,-1.04578
-0.388672,-0.839355,0.437988,-0.1875,0.3125,0.6875,-0.354919,0.394714,-0.334778,0.778503,-1.08009,0.386485,-1.04576
-0.386719,-0.840332,0.437988,-0.3125,0.5,0.8125,-0.354919,0.394775,-0.334778,0.778503,-1.0802,0.386587,-1.04587
-0.390625,-0.840332,0.437988,-0.25,0.6875,0.875,-0.354919,0.394775,-0.334778,0.778503,-1.0802,0.386587,-1.04587
-0.390625,-0.836914,0.442383,0.0625,0.4375,0.6875,-0.354919,0.394775,-0.334778,0.778503,-1.0802,0.386587,-1.04587
-0.394531,-0.83252,0.445313,0.0625,0.25,0.9375,-0.354919,0.394775,-0.334778,0.778503,-1.0802,0.386587,-1.04587
-0.400879,-0.838379,0.43457,0,0.125,1.125,-0.354858,0.395081,-0.334534,0.778503,-1.08053,0.387331,-1.0459
-0.396973,-0.827637,0.444824,0.3125,0.1875,0.625,-0.354797,0.395081,-0.334473,0.778503,-1.08038,0.387422,-1.04575
-0.396973,-0.839355,0.436523,-0.1875,-0.0625,0.5625,-0.354858,0.395142,-0.334473,0.778503,-1.08062,0.387481,-1.04589
-0.395508,-0.83252,0.442383,0.3125,-0.625,0.125,-0.354797,0.395142,-0.334473,0.778503,-1.08049,0.387525,-1.04586
-0.397461,-0.839355,0.436523,0.1875,-0.5625,0.25,-0.354797,0.395203,-0.334412,0.778503,-1.08058,0.387674,-1.04585
-0.395996,-0.835938,0.443848,0.5625,-0.75,0.1875,-0.354797,0.395203,-0.334412,0.778503,-1.08058,0.387674,-1.04585
-0.390625,-0.849121,0.435059,-0.3125,-0.875,0.375,-0.354858,0.395264,-0.334412,0.778442,-1.0808,0.387681,-1.04596
-0.392578,-0.838867,0.438477,0.4375,-1.3125,1.0625,-0.354797,0.395203,-0.334167,0.778625,-1.08053,0.387966,-1.04538
-0.394531,-0.841797,0.447266,0.875,-1.4375,1.875,-0.354614,0.395142,-0.333862,0.77887,-1.07999,0.388438,-1.04464
-0.39502,-0.838867,0.441406,0.5,-1.5,2.4375,-0.354492,0.395142,-0.333435,0.779114,-1.07964,0.389062,-1.04378
-0.397949,-0.833984,0.436035,0.3125,-1.375,2.5625,-0.35437,0.395203,-0.332947,0.779297,-1.07936,0.389783,-1.04289
-0.394531,-0.837891,0.444824,0.3125,-1.0625,2.875,-0.354187,0.395264,-0.33252,0.779541,-1.079,0.390554,-1.04211
-0.398438,-0.82666,0.444336,0.8125,-1.0625,2.375,-0.353882,0.395325,-0.332092,0.779846,-1.07839,0.391464,-1.04131
-0.392578,-0.836914,0.438477,0.25,-0.8125,2.375,-0.353821,0.395386,-0.331726,0.779968,-1.07827,0.391996,-1.04068
-0.399902,-0.831543,0.450684,0.5,-0.75,1.75,-0.353577,0.395447,-0.331421,0.780212,-1.07782,0.392717,-1.04014
-0.393066,-0.833008,0.439941,0.4375,-0.375,1.5,-0.353516,0.395508,-0.331238,0.780334,-1.07777,0.393108,-1.03989
-0.398926,-0.828125,0.445801,0.5625,-0.0625,0.625,-0.353455,0.395508,-0.331177,0.780334,-1.07762,0.393199,-1.03973
-0.396484,-0.835449,0.439941,0.4375,0.1875,0,-0.353516,0.395508,-0.331177,0.780334,-1.07775,0.393155,-1.03976
-0.398438,-0.828125,0.443359,0.625,0.25,-0.25,-0.353455,0.395569,-0.331177,0.780334,-1.07773,0.393302,-1.03985
-0.399414,-0.832031,0.441895,-0.1875,0.1875,-0.25,-0.353455,0.395569,-0.331177,0.780334,-1.07773,0.393302,-1.03985
-0.402832,-0.831055,0.438477,-0.125,0,-0.25,-0.353455,0.39563,-0.331116,0.780273,-1.0778,0.393399,-1.03981
-0.399902,-0.836426,0.445313,-0.0625,0.125,-0.5,-0.353455,0.39563,-0.331116,0.780273,-1.0778,0.393399,-1.03981
-0.399414,-0.83252,0.437988,0.3125,-0.0625,-0.125,-0.353455,0.39563,-0.331116,0.780273,-1.0778,0.393399,-1.03981
-0.399902,-0.82959,0.437988,0.625,-0.4375,-0.0625,-0.353455,0.395691,-0.331116,0.780273,-1.07791,0.393502,-1.03992
-0.397949,-0.836914,0.438477,0.375,-0.8125,0.1875,-0.353516,0.395691,-0.331116,0.780273,-1.07804,0.393459,-1.03995
-0.397949,-0.832031,0.441406,0.125,-0.75,0.0625,-0.353516,0.395752,-0.331055,0.780273,-1.07813,0.393609,-1.03994
-0.399414,-0.834473,0.44043,-0.0625,-0.6875,0.1875,-0.353516,0.395752,-0.331055,0.780273,-1.07813,0.393609,-1.03994
-0.396973,-0.838379,0.446289,0.1875,-0.8125,0.25,-0.353516,0.395752,-0.331055,0.780273,-1.07813,0.393609,-1.03994
-0.395508,-0.831543,0.440918,0.9375,-0.75,0.5625,-0.353516,0.395752,-0.331055,0.780212,-1.07811,0.393556,-1.03991
-0.401367,-0.833008,0.444336,0,-0.5625,0.25,-0.353516,0.395813,-0.331055,0.780212,-1.07822,0.393659,-1.04003
-0.399902,-0.83252,0.446777,-0.125,-0.75,0.1875,-0.353455,0.395813,-0.331055,0.780273,-1.07811,0.393755,-1.04002
-0.395508,-0.82959,0.437988,0,-0.5,0.125,-0.353455,0.395813,-0.331055,0.780212,-1.07809,0.393703,-1.04
-0.398926,-0.836914,0.444824,0.5625,-0.4375,-0.25,-0.353516,0.395813,-0.330994,0.780212,-1.0782,0.393706,-1.0399
-0.39502,-0.82959,0.435547,0.3125,-0.125,-0.6875,-0.353516,0.395874,-0.330994,0.780212,-1.07831,0.393809,-1.04001
-0.396484,-0.837891,0.442871,-0.3125,-0.3125,-0.8125,-0.353516,0.395874,-0.330994,0.780212,-1.07831,0.393809,-1.04001
-0.396973,-0.834961,0.442383,-0.1875,-0.4375,-0.5625,-0.353516,0.395874,-0.330994,0.780212,-1.07831,0.393809,-1.04001
-0.398438,-0.839355,0.443359,-0.3125,-0.25,-0.0625,-0.353516,0.395874,-0.330994,0.780212,-1.07831,0.393809,-1.04001
-0.397461,-0.837402,0.444336,0.125,-0.5,0.1875,-0.353516,0.395935,-0.330994,0.780212,-1.07842,0.393912,-1.04013
-0.401367,-0.836426,0.439941,0.3125,-0.75,0.125,-0.353516,0.395935,-0.330994,0.780151,-1.0784,0.39386,-1.04011
-0.401855,-0.838867,0.441406,0.5,-1,0.5,-0.353516,0.395935,-0.330933,0.780151,-1.07837,0.393907,-1.03998
-0.395996,-0.835938,0.4375,0.1875,-0.75,0.375,-0.353516,0.395996,-0.330933,0.780151,-1.07849,0.39401,-1.04009
-0.39502,-0.833496,0.445313,0.3125,-0.75,0.0625,-0.353516,0.395996,-0.330933,0.780151,-1.07849,0.39401,-1.04009
-0.395996,-0.835938,0.441406,-0.0625,-0.6875,-0.125,-0.353577,0.395996,-0.330933,0.780151,-1.07862,0.393966,-1.04012
-0.395996,-0.834473,0.44043,0.3125,-0.75,-0.125,-0.353577,0.395996,-0.330933,0.780151,-1.07862,0.393966,-1.04012
-0.395508,-0.831543,0.439941,0.5625,-0.75,-0.5,-0.353577,0.396057,-0.330933,0.780151,-1.07873,0.394069,-1.04023
-0.394531,-0.82959,0.447754,0.0625,-0.9375,-0.3125,-0.353577,0.396057,-0.330933,0.780151,-1.07873,0.394069,-1.04023
-0.397949,-0.833008,0.447754,-0.375,-1.0625,-0.125,-0.353638,0.395935,-0.330811,0.780212,-1.07861,0.393965,-1.0398
-0.393066,-0.839844,0.440918,-0.3125,-0.8125,0.0625,-0.353638,0.395935,-0.330811,0.780212,-1.07861,0.393965,-1.0398
-0.394531,-0.834961,0.439941,-0.1875,-0.4375,0.4375,-0.353638,0.395935,-0.330811,0.780151,-1.07859,0.393913,-1.03978
-0.393066,-0.84668,0.449707,-0.5,-0.125,0.8125,-0.353699,0.395935,-0.330811,0.780151,-1.07872,0.393869,-1.0398
-0.397949,-0.843262,0.442383,-0.25,-0.0625,1.1875,-0.353699,0.396057,-0.330627,0.780151,-1.07887,0.394216,-1.03965
-0.395996,-0.842285,0.442871,-0.625,0,1.75,-0.353699,0.39624,-0.330322,0.780212,-1.07911,0.394811,-1.03937
-0.394531,-0.833008,0.444824,-0.9375,0,3,-0.353638,0.396484,-0.329895,0.780334,-1.0793,0.3957,-1.03895
-0.397461,-0.842773,0.430176,-2.0625,0.1875,4.375,-0.35376,0.397034,-0.329102,0.780334,-1.08026,0.397151,-1.03838
-0.402344,-0.852539,0.4375,-2.1875,0.1875,5.3125,-0.353821,0.397583,-0.328247,0.780396,-1.08108,0.398746,-1.03767
-0.402832,-0.846191,0.441406,-2.75,-0.25,5.75,-0.353882,0.398071,-0.327271,0.780518,-1.08177,0.400385,-1.03662
-0.390625,-0.844238,0.445313,-5.125,-1,8.375,-0.354126,0.398682,-0.325806,0.780701,-1.0829,0.402532,-1.03489
-0.387207,-0.848633,0.446777,-5.9375,1.3125,12.0625,-0.354187,0.399719,-0.323975,0.780884,-1.08429,0.405821,-1.03312
-0.394043,-0.864258,0.437012,-6.5625,3.5,18.625,-0.353882,0.401611,-0.32135,0.781128,-1.0862,0.411495,-1.0312
-0.407227,-0.854004,0.442871,-5.8125,4.75,23.8125,-0.352844,0.403931,-0.318115,0.781738,-1.08722,0.419218,-1.02865
-0.41748,-0.848633,0.436523,-9.875,6.1875,29.9375,-0.351929,0.407043,-0.313782,0.782288,-1.08955,0.429034,-1.02542
-0.433594,-0.847656,0.431152,-13.5625,7.375,36.875,-0.350891,0.41095,-0.30835,0.782898,-1.09274,0.441249,-1.0215
-0.447266,-0.869629,0.42041,-15.25,9.125,45.9375,-0.349487,0.415771,-0.301636,0.783569,-1.09646,0.456418,-1.01671
-0.45752,-0.866699,0.414551,-10.6875,10.5625,53.875,-0.346863,0.420959,-0.294312,0.784729,-1.09823,0.474065,-1.01111
-0.481445,-0.852539,0.399902,-7.9375,10.25,60.125,-0.343384,0.426392,-0.286255,0.786316,-1.09852,0.49379,-1.00438
-0.505371,-0.826172,0.400391,-6.25,9.9375,68,-0.338928,0.432129,-0.2771,0.788391,-1.09704,0.516155,-0.995809
-0.519531,-0.814453,0.398438,-5.4375,10.5,75.4375,-0.33374,0.438232,-0.267029,0.79071,-1.09439,0.540767,-0.985934
-0.524902,-0.77832,0.401855,-7.3125,10.5625,80.875,-0.328186,0.444458,-0.256104,0.793152,-1.09085,0.566813,-0.974498
-0.550293,-0.762207,0.385742,-8.375,11.25,83.8125,-0.322571,0.45105,-0.244629,0.795349,-1.0876,0.59398,-0.962704
-0.563477,-0.745605,0.380859,-9.875,12.25,86.375,-0.316833,0.457825,-0.232727,0.797363,-1.0842,0.621966,-0.950395
-0.594727,-0.70752,0.374512,-9.6875,13.125,84.5,-0.310974,0.4646,-0.220947,0.799133,-1.08049,0.649937,-0.938257
-0.617188,-0.687988,0.368652,-10.125,11.0625,80,-0.305481,0.470764,-0.209595,0.800659,-1.07633,0.676143,-0.92579
-0.645996,-0.651367,0.353516,-11.625,6.8125,72.75,-0.300781,0.476135,-0.19873,0.802063,-1.07231,0.700019,-0.912972
-0.677246,-0.642578,0.342285,-11.5625,1.0625,66.875,-0.296631,0.480408,-0.188293,0.803528,-1.06708,0.721264,-0.898735
-0.733887,-0.663574,0.330078,-10.1875,-3.0625,55.1875,-0.293518,0.483765,-0.179199,0.804749,-1.06268,0.738827,-0.885711
-0.714844,-0.632813,0.331055,-9.875,-7.375,50.25,-0.290833,0.485962,-0.170776,0.806213,-1.05677,0.753566,-0.8715
-0.729492,-0.60498,0.339844,-9.25,-11.6875,47.5,-0.288269,0.487427,-0.162415,0.808044,-1.0493,0.767151,-0.855611
-0.740723,-0.596191,0.350586,-10.875,-14.8125,44.5,-0.286133,0.488159,-0.154175,0.809937,-1.04093,0.778942,-0.838325
-0.72998,-0.586426,0.37793,-12.75,-15,41.375,-0.284485,0.488464,-0.146301,0.811829,-1.03276,0.789296,-0.821012
-0.714844,-0.587891,0.398438,-11.6875,-12.375,36.125,-0.283142,0.488525,-0.139587,0.813416,-1.02529,0.797629,-0.805663
-0.713867,-0.569824,0.401367,-8.5,-11.875,30,-0.281738,0.48822,-0.133972,0.815063,-1.01742,0.804337,-0.791624
-0.710449,-0.556641,0.405762,-4.625,-11.0625,23.5625,-0.280273,0.487549,-0.129639,0.81665,-1.00928,0.80907,-0.779305
-0.714355,-0.550781,0.414063,-1.4375,-7.3125,20.3125,-0.278564,0.487122,-0.126221,0.817993,-1.00165,0.813365,-0.769262
-0.725586,-0.561523,0.410645,6.8125,-5.3125,10.25,-0.27655,0.48645,-0.125061,0.819275,-0.994246,0.815257,-0.763247
-0.734375,-0.549805,0.421387,10.75,2.75,2.3125,-0.274292,0.486389,-0.125671,0.819946,-0.988862,0.816399,-0.762316
-0.749023,-0.526367,0.38916,9.875,7.9375,-3.5,-0.272522,0.487244,-0.127136,0.819824,-0.987463,0.817757,-0.765924
-0.757813,-0.526367,0.371582,4.5625,7.75,-6.75,-0.27179,0.48822,-0.128479,0.819275,-0.988865,0.818519,-0.770534
-0.768555,-0.547852,0.359863,-0.875,6,-6.8125,-0.272095,0.489136,-0.129333,0.818481,-0.992377,0.818783,-0.774899
-0.756348,-0.568359,0.362793,-3.1875,6.4375,-6.8125,-0.272827,0.490051,-0.130188,0.817566,-0.996972,0.818704,-0.779675
-0.745117,-0.587891,0.36377,-3.625,5.75,-6.75,-0.273865,0.490723,-0.131104,0.81665,-1.00178,0.817866,-0.784269
-0.73584,-0.592773,0.367676,-2.6875,3.9375,-6.875,-0.274841,0.491028,-0.13208,0.815979,-1.00562,0.816472,-0.788048
-0.737793,-0.602051,0.356934,-2.875,3.3125,-6.8125,-0.275879,0.491333,-0.133057,0.815308,-1.00961,0.81505,-0.791879
-0.736328,-0.606445,0.368652,-3.4375,3.5,-6.625,-0.276978,0.491577,-0.133911,0.814636,-1.0135,0.813553,-0.795333
-0.724609,-0.613281,0.365723,-4.25,4.6875,-6.0625,-0.278198,0.491943,-0.134827,0.813904,-1.01805,0.812156,-0.799337
-0.733887,-0.614258,0.365723,-3.9375,5.625,-5.5,-0.279236,0.492493,-0.13562,0.813049,-1.02245,0.811182,-0.803327
-0.727051,-0.612305,0.35791,-3.3125,5.9375,-4.8125,-0.280151,0.493164,-0.136414,0.812195,-1.02685,0.810538,-0.807513
-0.728516,-0.616699,0.351074,-1.9375,6.75,-4,-0.280762,0.493958,-0.137268,0.81134,-1.03082,0.810245,-0.811852
-0.73584,-0.613281,0.362305,-0.9375,7.0625,-2.8125,-0.281067,0.494751,-0.138,0.810608,-1.03397,0.810343,-0.81566
-0.736816,-0.601563,0.349121,-0.4375,7.875,-4,-0.28125,0.495789,-0.138916,0.809814,-1.03757,0.810821,-0.820387
-0.742188,-0.606934,0.349609,-2.3125,7.875,-3.125,-0.281677,0.496826,-0.139526,0.808899,-1.04153,0.811269,-0.824661
-0.738281,-0.608887,0.347168,-3.25,8.875,-2.3125,-0.282166,0.498047,-0.140015,0.807861,-1.04603,0.812038,-0.829196
-0.733398,-0.616211,0.350586,-2.375,9.75,-2.25,-0.282532,0.499329,-0.140686,0.806824,-1.05052,0.812842,-0.834192
-0.733887,-0.617188,0.347168,-0.9375,10.25,-2.0625,-0.282715,0.50061,-0.141479,0.805847,-1.05467,0.813701,-0.83931
-0.741211,-0.614746,0.338379,0.4375,10.3125,-2.125,-0.282593,0.501953,-0.142334,0.804871,-1.05827,0.814772,-0.844448
-0.736328,-0.605957,0.341797,-1.0625,9.8125,-1.625,-0.282654,0.503235,-0.142944,0.803955,-1.06203,0.815909,-0.8491
-0.739258,-0.616211,0.330566,-1.5625,10,-1.9375,-0.282837,0.504639,-0.143616,0.802917,-1.06647,0.817045,-0.854325
-0.743164,-0.615234,0.324707,-0.9375,10.25,-2.625,-0.28302,0.505981,-0.14447,0.801819,-1.07086,0.817788,-0.859782
-0.747559,-0.613281,0.318848,-1.8125,10.375,-2.375,-0.283264,0.507507,-0.145081,0.800659,-1.07575,0.819037,-0.865282
-0.75293,-0.615723,0.316406,-2.875,10.5625,-2.5,-0.28363,0.509033,-0.145691,0.799438,-1.08095,0.820133,-0.870909
-0.73877,-0.626465,0.325684,-3.0625,9.6875,-1.6875,-0.284119,0.510315,-0.14624,0.798401,-1.08583,0.820919,-0.875903
-0.750488,-0.627441,0.316895,-0.6875,10.1875,-3,-0.284302,0.511658,-0.147156,0.797302,-1.09035,0.821573,-0.881568
-0.748535,-0.615723,0.316406,-1.3125,10.9375,-2.125,-0.284363,0.513123,-0.147827,0.796204,-1.09476,0.822761,-0.886959
-0.743652,-0.624023,0.314453,-2.875,12.3125,-1.375,-0.284607,0.514771,-0.148438,0.794922,-1.10008,0.824063,-0.892894
-0.741211,-0.631348,0.312012,-3.75,14.375,-0.3125,-0.284912,0.516785,-0.148987,0.793396,-1.10652,0.825864,-0.899784
-0.736328,-0.635254,0.305176,-2.6875,14.875,0.9375,-0.285034,0.51886,-0.149536,0.791931,-1.11275,0.827965,-0.906744
-0.742188,-0.630371,0.297363,-2,15.1875,2.75,-0.28479,0.521057,-0.149841,0.790527,-1.11832,0.830803,-0.913264
-0.743164,-0.631836,0.291016,-1.5,17.0625,4.375,-0.284302,0.523621,-0.150085,0.78894,-1.12433,0.834367,-0.92053
-0.74707,-0.628906,0.285645,-1.5,17.9375,5.4375,-0.283691,0.526367,-0.150208,0.787292,-1.13056,0.838416,-0.928042
-0.754395,-0.62793,0.282227,-0.5,17.8125,6.375,-0.282837,0.529114,-0.150269,0.785767,-1.13628,0.842812,-0.935324
-0.754395,-0.625488,0.27832,0.0625,17.6875,6.625,-0.281921,0.531799,-0.15033,0.784241,-1.14177,0.847088,-0.942459
-0.770508,-0.604492,0.263672,0.5625,17.875,6,-0.280762,0.534668,-0.15033,0.782715,-1.14727,0.851958,-0.949904
-0.777832,-0.602539,0.25293,-1.75,17,5.9375,-0.279968,0.537537,-0.150085,0.781067,-1.15361,0.85667,-0.957256
-0.779785,-0.61084,0.247559,-2.25,14.3125,5.3125,-0.27948,0.539978,-0.149841,0.779663,-1.15955,0.860619,-0.963704
-0.780762,-0.612305,0.244141,-0.0625,12.0625,4.5625,-0.278809,0.541992,-0.14978,0.778503,-1.16393,0.863876,-0.96913
-0.779297,-0.611328,0.242676,1.3125,9.625,4.5625,-0.278015,0.54364,-0.149719,0.777649,-1.16697,0.866819,-0.973383
-0.780762,-0.599609,0.249023,2.1875,6.6875,3.875,-0.277161,0.544739,-0.149658,0.777161,-1.16821,0.869088,-0.975911
-0.793457,-0.594727,0.236328,1.875,6.375,2.4375,-0.276489,0.545959,-0.149719,0.77655,-1.17038,0.871256,-0.979258
-0.791016,-0.589844,0.236328,-0.9375,4,0.8125,-0.276306,0.546753,-0.149536,0.776062,-1.17226,0.872584,-0.981189
-0.79541,-0.603027,0.230469,-1.6875,2,-0.25,-0.27655,0.547302,-0.149414,0.775635,-1.17448,0.873175,-0.982869
-0.790039,-0.606445,0.234863,-0.25,0.75,-1.1875,-0.276733,0.547546,-0.149536,0.775391,-1.17575,0.873158,-0.984047
-0.781738,-0.596191,0.246094,-0.25,0.5,-1.25,-0.276794,0.547668,-0.149658,0.775269,-1.17635,0.873111,-0.984735
-0.778809,-0.604492,0.239258,-0.0625,-0.375,-1.5625,-0.277039,0.547607,-0.14978,0.775146,-1.1768,0.872537,-0.984989
-0.773438,-0.614258,0.247559,-0.125,-0.8125,-1.5625,-0.277283,0.547424,-0.150024,0.775146,-1.17697,0.871771,-0.985127
-0.771484,-0.611328,0.250488,0.5625,-0.75,-1.9375,-0.277527,0.54718,-0.150391,0.775208,-1.17703,0.870857,-0.985336
-0.77832,-0.612305,0.254395,0.9375,-1.125,-2.125,-0.277649,0.546875,-0.150757,0.775269,-1.17658,0.869854,-0.98523
-0.780273,-0.606445,0.245605,-0.0625,-1.4375,-2.5625,-0.277954,0.546631,-0.151001,0.77533,-1.17672,0.869018,-0.98524
-0.77832,-0.612305,0.247559,-1.0625,-0.625,-2.1875,-0.27832,0.546509,-0.151184,0.775208,-1.17732,0.86819,-0.985534
-0.780762,-0.608887,0.241211,-1.3125,-0.125,-3.125,-0.27887,0.546448,-0.151428,0.775024,-1.17859,0.867266,-0.986312
-0.771973,-0.625977,0.241699,-0.75,0.125,-2.375,-0.279358,0.546387,-0.151794,0.77478,-1.17977,0.866163,-0.987273
-0.77002,-0.617188,0.242188,0.625,1.0625,-2.25,-0.279541,0.546448,-0.152283,0.774597,-1.18068,0.865493,-0.988622
-0.770996,-0.60791,0.255859,0.3125,0.5,-1.75,-0.279663,0.546387,-0.152588,0.774536,-1.18096,0.864924,-0.989159
-0.775391,-0.61377,0.23877,-0.4375,0.1875,-1.625,-0.279907,0.546448,-0.152771,0.774353,-1.18183,0.864489,-0.989922
-0.769531,-0.616211,0.243652,-1.0625,0.8125,-1.4375,-0.280212,0.54657,-0.152954,0.77417,-1.18305,0.86417,-0.990942
-0.764648,-0.62793,0.244629,0.625,1.3125,-0.3125,-0.280334,0.546631,-0.153259,0.773987,-1.1837,0.863686,-0.991847
-0.766113,-0.611816,0.252441,2.25,0.75,-0.1875,-0.280029,0.546631,-0.153564,0.774048,-1.18315,0.86367,-0.992221
-0.776367,-0.619629,0.243652,1.125,0.75,0.0625,-0.279907,0.546753,-0.153748,0.773987,-1.18334,0.863758,-0.992878
-0.77832,-0.616699,0.237305,0.375,0.5625,-0.4375,-0.279907,0.546753,-0.153687,0.773926,-1.18328,0.863708,-0.992734
-0.780273,-0.61084,0.237793,0.1875,-0.6875,-0.25,-0.279907,0.546814,-0.153687,0.773926,-1.18348,0.863853,-0.992935
-0.770996,-0.615234,0.243164,0.0625,-1.4375,-0.25,-0.280029,0.546631,-0.153687,0.773987,-1.18321,0.863462,-0.992461
-0.773438,-0.607422,0.242676,0.3125,-1.4375,-0.5,-0.28009,0.546509,-0.153687,0.774109,-1.183,0.863348,-0.992147
-0.772949,-0.609863,0.251953,0.75,-1.9375,-0.4375,-0.280029,0.546204,-0.153748,0.774353,-1.18196,0.863007,-0.991279
-0.773926,-0.60498,0.244629,0.875,-2.125,-1.0625,-0.280029,0.545898,-0.153809,0.774536,-1.18105,0.862535,-0.990453
-0.772949,-0.612305,0.250488,-0.125,-1.625,-1.6875,-0.280212,0.545654,-0.153931,0.774597,-1.18081,0.861865,-0.990093
-0.777832,-0.619141,0.246582,-0.25,-1.625,-1.8125,-0.280518,0.54541,-0.154053,0.774658,-1.18087,0.861137,-0.989846
-0.770508,-0.614746,0.253906,0.5625,-1.4375,-2,-0.280701,0.545044,-0.154297,0.77478,-1.18032,0.860174,-0.989361
-0.766602,-0.612305,0.249023,1.125,-0.875,-2.1875,-0.280762,0.544861,-0.154663,0.774841,-1.18013,0.859497,-0.989602
-0.766113,-0.614746,0.244629,0.5625,-2.0625,-2.125,-0.281006,0.544495,-0.154907,0.774902,-1.17971,0.858405,-0.98916
-0.77002,-0.612793,0.252441,0.5625,-2.5625,-2.3125,-0.281189,0.544067,-0.155151,0.775146,-1.17901,0.857502,-0.988512
-0.766602,-0.615723,0.241211,0.5,-2.5625,-2.5,-0.281494,0.54364,-0.155396,0.775269,-1.17858,0.856338,-0.987947
-0.764648,-0.626953,0.243652,1.4375,-1.6875,-2.3125,-0.281677,0.543335,-0.155823,0.77533,-1.17834,0.855264,-0.988036
-0.760742,-0.621582,0.245605,2.25,-1.75,-2.375,-0.281738,0.542969,-0.156311,0.775452,-1.17765,0.854152,-0.987961
-0.771973,-0.612305,0.250488,2.1875,-1.875,-3.25,-0.281799,0.542603,-0.156799,0.775574,-1.17697,0.853042,-0.987888
-0.774902,-0.595703,0.262207,-0.6875,-2,-5,-0.282166,0.542175,-0.157166,0.775696,-1.17677,0.851748,-0.987642
-0.772461,-0.600586,0.25293,-2.125,-0.6875,-7.8125,-0.28302,0.54187,-0.157837,0.775452,-1.17826,0.849645,-0.988773
-0.760254,-0.610352,0.26416,-1.375,0.8125,-11.4375,-0.284119,0.541382,-0.159241,0.775085,-1.18017,0.846171,-0.991028
-0.755371,-0.624023,0.253906,0.875,2.9375,-13.875,-0.285217,0.541077,-0.161377,0.774475,-1.18303,0.842104,-0.995317
-0.75293,-0.624512,0.254883,0.8125,3.6875,-13.125,-0.286255,0.540894,-0.163391,0.773804,-1.18601,0.838361,-0.999651
-0.755859,-0.627441,0.251465,-1.25,3.0625,-13.5,-0.287537,0.54071,-0.165222,0.773071,-1.18945,0.834559,-1.00378
-0.748535,-0.630371,0.244141,-4.6875,2.4375,-12.8125,-0.289307,0.540588,-0.166565,0.772156,-1.19389,0.830784,-1.00744
-0.741699,-0.648926,0.247559,-3.375,2.6875,-12.125,-0.290894,0.540466,-0.168091,0.771362,-1.19801,0.827139,-1.01134
-0.739746,-0.635254,0.251465,-1.1875,4.6875,-12.625,-0.292053,0.540405,-0.169922,0.770508,-1.20143,0.823487,-1.01565
-0.746582,-0.631836,0.246094,-0.375,7,-15.125,-0.293213,0.540649,-0.17218,0.769409,-1.20594,0.819772,-1.0217
-0.739746,-0.628906,0.243652,-1.625,7.375,-18,-0.294739,0.540833,-0.174683,0.768127,-1.2112,0.815233,-1.02828
-0.73584,-0.627441,0.234863,-1.875,7.875,-21.3125,-0.29657,0.541016,-0.177612,0.766663,-1.21732,0.809879,-1.03588
-0.730957,-0.629883,0.230469,-1.8125,7.125,-26.8125,-0.298889,0.540771,-0.181213,0.765076,-1.22353,0.802559,-1.04379
-0.723633,-0.653809,0.227539,2.4375,8.6875,-33.3125,-0.301392,0.540222,-0.186218,0.763306,-1.22983,0.792998,-1.05358
-0.705078,-0.688477,0.236816,9.125,7.8125,-40.25,-0.303772,0.538757,-0.192932,0.761658,-1.23385,0.780286,-1.0638
-0.715332,-0.699219,0.219727,18.875,6.75,-47.375,-0.305542,0.536743,-0.201294,0.760254,-1.2356,0.765801,-1.0752
-0.693359,-0.687988,0.219727,22.3125,2.5,-49.5625,-0.30719,0.533813,-0.209961,0.759277,-1.2346,0.749987,-1.08451
-0.695313,-0.698242,0.22998,21.4375,-3.1875,-52.9375,-0.309265,0.530029,-0.218628,0.758667,-1.23223,0.732867,-1.0918
-0.680176,-0.925293,-0.216309,8.3125,-8.5625,-60.375,-0.317505,0.528748,-0.226685,0.753784,-1.24933,0.711771,-1.10794
-0.62793,-0.530273,0.260254,45.3125,-6.5625,-54.25,-0.315552,0.523254,-0.236877,0.75531,-1.23454,0.695728,-1.11163
-0.652832,-0.774902,0.185547,9.1875,-15.0625,-80.5625,-0.322632,0.51709,-0.247314,0.753235,-1.23722,0.667975,-1.11878
-0.675781,-0.742676,0.309082,7.875,-28.5625,-65.625,-0.328003,0.509338,-0.254639,0.753723,-1.2316,0.644446,-1.11557
-0.611328,-0.826172,0.210449,3.1875,-31.0625,-79.5,-0.336487,0.501099,-0.263428,0.752502,-1.23215,0.614899,-1.11572
-0.599609,-0.854004,0.234863,13.4375,-35.6875,-72.9375,-0.343079,0.492004,-0.271912,0.752502,-1.22721,0.587035,-1.11297
-0.531738,-1.05127,0.279297,16.25,-44.5625,-52.875,-0.349121,0.481934,-0.278381,0.753845,-1.21899,0.561231,-1.10464
-0.525879,-0.766602,0.287109,48.6875,-46.3125,-58,-0.34967,0.470215,-0.286987,0.757751,-1.1975,0.537407,-1.0955
-0.524414,-0.681152,0.300293,33.6875,-48.1875,-68.125,-0.352417,0.458496,-0.295166,0.760559,-1.18127,0.511383,-1.08741
-0.505371,-0.831543,0.327148,4.0625,-51.375,-56.8125,-0.359009,0.448303,-0.299622,0.76178,-1.17555,0.486894,-1.07748
-0.456055,-0.921387,0.366699,4.375,-51.0625,-51.375,-0.365479,0.437866,-0.303772,0.763123,-1.16968,0.462567,-1.06701
-0.399902,-0.897461,0.401855,20.4375,-48.5625,-51.4375,-0.369507,0.426514,-0.309448,0.76532,-1.15821,0.438026,-1.05752
-0.356934,-0.837402,0.412109,23,-44.875,-50.4375,-0.37262,0.415405,-0.315369,0.767517,-1.14606,0.414395,-1.04934
-0.358398,-0.820313,0.411133,12.0625,-41.5625,-44.8125,-0.376404,0.405884,-0.319702,0.768982,-1.1382,0.393649,-1.04175
-0.364746,-0.845703,0.408691,3.6875,-38.9375,-43.25,-0.381042,0.397461,-0.323242,0.769592,-1.13412,0.374092,-1.03515
-0.347168,-0.856445,0.416992,3.0625,-38.3125,-43.6875,-0.385742,0.38916,-0.326782,0.77002,-1.1307,0.354599,-1.02906
-0.315918,-0.880859,0.430664,6,-37.625,-44.8125,-0.390137,0.380432,-0.330872,0.770447,-1.12639,0.334223,-1.02349
-0.293457,-0.886719,0.432129,4.9375,-33.375,-44.5,-0.394409,0.372375,-0.335083,0.770386,-1.1232,0.314589,-1.01947
-0.29834,-0.891113,0.433594,6.9375,-28.0625,-44.5,-0.39801,0.365051,-0.3396,0.77002,-1.12005,0.296176,-1.01723
-0.297852,-0.878906,0.462891,11.625,-24.125,-46.375,-0.400452,0.357849,-0.344849,0.769836,-1.11508,0.278361,-1.01654
-0.342285,-0.849121,0.502441,11.9375,-18,-43.875,-0.401611,0.351868,-0.349915,0.769714,-1.10942,0.26366,-1.0173
-0.275879,-0.864746,0.459473,8.625,-12.5,-44.875,-0.403625,0.346558,-0.355469,0.768494,-1.1066,0.248244,-1.02028
-0.208008,-0.867188,0.474121,-1.25,-13.0625,-39.1875,-0.406738,0.341675,-0.359924,0.766968,-1.10649,0.233431,-1.02209
-0.178223,-0.907715,0.465332,-2,-8.9375,-38.625,-0.410034,0.337402,-0.364685,0.764832,-1.10769,0.218787,-1.02545
-0.191406,-0.899902,0.470703,2.875,-6.4375,-37.9375,-0.412231,0.333374,-0.369629,0.763062,-1.10708,0.205467,-1.02941
-0.185059,-0.892578,0.44873,-3.25,-5.25,-34.5,-0.415039,0.330261,-0.373718,0.760925,-1.10888,0.1936,-1.03318
-0.184082,-0.92041,0.452637,-9.1875,-4.625,-29.8125,-0.418335,0.328003,-0.376831,0.758545,-1.1127,0.183352,-1.03635
-0.167969,-0.932129,0.451172,-7.8125,-3.25,-25.4375,-0.421143,0.326172,-0.379578,0.756409,-1.11611,0.174612,-1.03936
-0.161621,-0.929688,0.44043,-5.9375,-0.625,-21.625,-0.42334,0.324829,-0.38208,0.754517,-1.11893,0.16746,-1.04251
-0.178711,-0.938477,0.439453,-7.75,1.375,-15.25,-0.425171,0.324524,-0.383728,0.752808,-1.12235,0.163029,-1.04545
-0.159668,-0.946777,0.42041,-11.1875,1.1875,-10.625,-0.427429,0.324707,-0.384521,0.750977,-1.12718,0.159661,-1.04744
-0.159668,-0.976563,0.412598,-9.375,1.0625,-7.1875,-0.429382,0.325134,-0.384949,0.749451,-1.13172,0.157413,-1.04907
-0.148926,-0.962891,0.421387,-3.0625,-0.0625,-2.0625,-0.430237,0.325134,-0.385071,0.748901,-1.13344,0.156279,-1.04939
-0.155273,-0.939453,0.415527,2.125,-0.625,1.625,-0.430115,0.325134,-0.384949,0.749084,-1.13321,0.156601,-1.04916
-0.167969,-0.92041,0.42334,2.25,-1,4.125,-0.429688,0.325256,-0.384399,0.749573,-1.13247,0.157919,-1.04825
-0.179688,-0.915039,0.426758,1.75,-2.125,3.3125,-0.429321,0.325256,-0.383789,0.750061,-1.13167,0.159056,-1.04703
-0.173828,-0.914063,0.434082,3,-2.9375,2.8125,-0.428894,0.324951,-0.383301,0.750671,-1.13034,0.159751,-1.04562
-0.166992,-0.910156,0.437988,3.25,-2,2.1875,-0.428345,0.324646,-0.383057,0.751221,-1.12879,0.160286,-1.04466
-0.160645,-0.912109,0.439941,1.125,-1,2.125,-0.428101,0.324524,-0.382813,0.751526,-1.12811,0.160703,-1.04399
-0.164063,-0.910156,0.445313,-2.75,0.1875,3.6875,-0.428162,0.32489,-0.382263,0.751648,-1.12869,0.16177,-1.04348
-0.163086,-0.92627,0.429199,-5.5,0.375,5,-0.42865,0.325684,-0.381348,0.751526,-1.13068,0.163315,-1.04292
-0.165039,-0.949219,0.426758,-5.125,0.0625,8.0625,-0.429016,0.32666,-0.380005,0.751526,-1.13261,0.165688,-1.04176
-0.168945,-0.946777,0.427246,-2.125,0.1875,12,-0.428772,0.327759,-0.378357,0.752075,-1.13348,0.169349,-1.04018
-0.175293,-0.947754,0.42334,0.5625,0.75,14.9375,-0.427979,0.328979,-0.376465,0.75293,-1.13337,0.174036,-1.03822
-0.179199,-0.937988,0.425781,0.4375,1.125,18.0625,-0.426941,0.330444,-0.374207,0.753967,-1.13306,0.179726,-1.03588
-0.183105,-0.942871,0.427734,-2.0625,0.625,22.4375,-0.426025,0.332275,-0.371277,0.755127,-1.13344,0.186554,-1.03283
-0.180176,-0.952148,0.428711,-0.875,0.5,28.9375,-0.424683,0.334412,-0.367554,0.756775,-1.1333,0.195199,-1.02868
-0.1875,-0.996094,0.42334,9.6875,2.3125,36.6875,-0.421692,0.33667,-0.363586,0.759338,-1.12996,0.206106,-1.02403
-0.202637,-0.921387,0.426758,18.75,2.625,43.9375,-0.416748,0.338928,-0.359192,0.763184,-1.12264,0.219707,-1.01828
-0.25,-0.874512,0.420898,13.25,4.375,48.5625,-0.411743,0.342407,-0.353699,0.766907,-1.11674,0.23611,-1.01219
-0.27002,-0.887207,0.432617,0.4375,2.5625,55.8125,-0.408142,0.346802,-0.346313,0.770203,-1.11469,0.254256,-1.0041
-0.26123,-0.882324,0.442383,-8.0625,2.6875,62.0625,-0.405273,0.351868,-0.337769,0.773193,-1.11488,0.273753,-0.995021
-0.277344,-0.897461,0.438965,-9.4375,3.3125,65.8125,-0.402405,0.3573,-0.328674,0.776123,-1.1155,0.294328,-0.985583
-0.304199,-0.902832,0.438965,-6.125,4.1875,67.875,-0.398865,0.362793,-0.319519,0.779175,-1.1148,0.315686,-0.976063
-0.320801,-0.902344,0.444336,-1.375,7.0625,67.375,-0.394531,0.368225,-0.310913,0.782349,-1.11249,0.337184,-0.967397
-0.328125,-0.86377,0.44043,-0.0625,10.0625,68.625,-0.389709,0.373962,-0.30249,0.785339,-1.10965,0.359288,-0.959465
-0.353516,-0.822266,0.431641,-3,13.375,71.875,-0.384583,0.380554,-0.293457,0.788086,-1.10735,0.383428,-0.951722
-0.396973,-0.819336,0.407227,-7.0625,13.3125,71.5,-0.380127,0.387512,-0.283997,0.790344,-1.10696,0.407839,-0.944097
-0.43457,-0.849121,0.397949,-8.75,10.9375,72,-0.376038,0.394348,-0.27417,0.792358,-1.10705,0.43205,-0.935801
-0.457031,-0.831055,0.394531,-6.125,10.375,72.625,-0.371521,0.401001,-0.264343,0.794556,-1.10601,0.456509,-0.92719
-0.461426,-0.820801,0.388672,-5.0625,8.625,75.1875,-0.36676,0.407288,-0.25415,0.796875,-1.10369,0.481027,-0.917193
-0.482422,-0.813477,0.389648,-2.0625,9.0625,73.6875,-0.361633,0.41333,-0.244385,0.799133,-1.10025,0.505056,-0.907444
-0.492676,-0.796387,0.398438,-0.125,9.8125,70.25,-0.356384,0.419006,-0.235352,0.80127,-1.0961,0.527903,-0.898374
-0.505859,-0.769043,0.409668,-0.4375,11.9375,66.375,-0.351135,0.4245,-0.226929,0.803101,-1.09175,0.549741,-0.890083
-0.524414,-0.756836,0.399902,-1.3125,13.625,63.6875,-0.34613,0.430176,-0.218872,0.804504,-1.08836,0.571198,-0.882949
-0.543457,-0.749023,0.393066,-0.4375,13.375,63.125,-0.341064,0.435669,-0.210876,0.805847,-1.08449,0.59236,-0.875529
-0.565918,-0.725586,0.404297,0.5,14.9375,59.875,-0.335815,0.441101,-0.203491,0.807007,-1.0803,0.612937,-0.869048
-0.594238,-0.711914,0.393066,-0.3125,16.625,56.125,-0.330872,0.446655,-0.196533,0.807678,-1.07716,0.63286,-0.863787
-0.619629,-0.687988,0.387207,-0.6875,17.25,54.4375,-0.325928,0.452209,-0.189697,0.808228,-1.0741,0.652684,-0.85878
-0.635742,-0.682617,0.383789,-1.875,18.0625,52.4375,-0.321289,0.457825,-0.183105,0.808472,-1.07199,0.672083,-0.854601
-0.654297,-0.664063,0.378418,-2.125,18.0625,47.375,-0.316956,0.463135,-0.177124,0.808472,-1.07025,0.690058,-0.851206
-0.664063,-0.662109,0.373047,-2.0625,18.125,44.4375,-0.312988,0.468262,-0.17157,0.808289,-1.06924,0.707035,-0.848579
-0.675293,-0.647461,0.375977,-2.5625,17.3125,43.125,-0.309082,0.473083,-0.166138,0.808105,-1.06782,0.723354,-0.845597
-0.688965,-0.624023,0.351563,-3.125,15.75,39.6875,-0.305542,0.477722,-0.16095,0.8078,-1.06704,0.738872,-0.843018
-0.701172,-0.632324,0.347656,-4.6875,12.5,36.875,-0.302673,0.481689,-0.155884,0.807495,-1.06641,0.752629,-0.839666
-0.712402,-0.623047,0.348633,-4.75,10.125,33.3125,-0.30011,0.485168,-0.151184,0.807251,-1.06563,0.765034,-0.836183
-0.727051,-0.616211,0.339355,-3.5625,8,28.25,-0.297852,0.488098,-0.147156,0.807068,-1.06469,0.775671,-0.833037
-0.740723,-0.609863,0.333984,-1.625,8,22.9375,-0.295715,0.490723,-0.143982,0.806824,-1.06384,0.78482,-0.831034
-0.740723,-0.604004,0.32666,-2.5,5.5,20.5625,-0.294067,0.49292,-0.14093,0.806641,-1.06325,0.792816,-0.828661
-0.745605,-0.597656,0.333496,-2.125,3.25,17.75,-0.292542,0.494568,-0.138245,0.806641,-1.06184,0.799478,-0.825792
-0.742188,-0.605469,0.330078,0,3.1875,13.5625,-0.29126,0.495911,-0.136353,0.80658,-1.06077,0.804602,-0.824035
-0.743164,-0.587402,0.34668,-0.375,1.8125,10.6875,-0.2901,0.496765,-0.134766,0.806763,-1.05901,0.808645,-0.82181
-0.749023,-0.58252,0.343262,0.0625,1.875,6.0625,-0.289246,0.497437,-0.133789,0.806763,-1.05791,0.811369,-0.820658
-0.745117,-0.591797,0.347168,-0.5625,0.4375,3.25,-0.288818,0.497742,-0.13324,0.806885,-1.05728,0.812889,-0.819898
-0.742188,-0.600098,0.339844,0.6875,-0.125,-0.25,-0.288818,0.497742,-0.133179,0.806885,-1.05723,0.81294,-0.819766
-0.73291,-0.606934,0.351074,2.375,2.75,-1.5,-0.288513,0.497925,-0.133789,0.806763,-1.05731,0.812799,-0.821249
-0.743164,-0.595703,0.333496,2.375,3.4375,-3.6875,-0.28833,0.498291,-0.134583,0.806458,-1.05827,0.812622,-0.823695
-0.744141,-0.609863,0.337402,-1.4375,3.25,-3.875,-0.288757,0.498657,-0.135132,0.805969,-1.06057,0.812145,-0.826164
-0.733398,-0.618164,0.33252,-0.75,2.6875,-4.75,-0.289307,0.49884,-0.135925,0.805542,-1.06289,0.811071,-0.828801
-0.727051,-0.626465,0.333008,0.3125,2.4375,-4.25,-0.289795,0.498962,-0.13678,0.805176,-1.06494,0.809915,-0.831358
-0.736328,-0.622559,0.333008,2.3125,2.375,-4.375,-0.289856,0.499023,-0.137695,0.804932,-1.06581,0.808911,-0.833494
-0.73291,-0.629395,0.32666,0.375,0.5,-2.875,-0.290222,0.499023,-0.138245,0.804749,-1.06707,0.808039,-0.834986
-0.731934,-0.629883,0.337402,-0.8125,0.75,-1.6875,-0.290588,0.499023,-0.13855,0.804565,-1.06816,0.807371,-0.835949
-0.726074,-0.631348,0.32666,-1.125,0.1875,-0.375,-0.290955,0.499084,-0.138611,0.804382,-1.06924,0.807051,-0.836551
-0.730469,-0.636719,0.333496,-0.25,0.1875,0.6875,-0.291016,0.499084,-0.138611,0.804321,-1.06938,0.806938,-0.836594
-0.728516,-0.636719,0.333984,1.75,0.3125,0.875,-0.290833,0.499084,-0.138794,0.804382,-1.06905,0.806946,-0.836827
-0.743652,-0.622559,0.331055,3.4375,1,0.25,-0.290344,0.499268,-0.139099,0.804382,-1.0685,0.807311,-0.837509
-0.734863,-0.61377,0.330078,1.0625,-0.125,0.6875,-0.290161,0.499329,-0.139099,0.804443,-1.06822,0.807615,-0.837513
-0.729004,-0.626953,0.345215,0.4375,0.0625,1.8125,-0.290039,0.499329,-0.138977,0.804504,-1.06784,0.807855,-0.837148
-0.740234,-0.606445,0.34082,1.625,0.6875,0.3125,-0.289673,0.49939,-0.139038,0.804565,-1.06712,0.808181,-0.837107
-0.737305,-0.612793,0.334473,0.1875,0.25,-0.375,-0.289673,0.499451,-0.139038,0.804565,-1.06729,0.808324,-0.837273
-0.733398,-0.622559,0.344238,0.9375,-0.25,-0.25,-0.289673,0.49939,-0.139038,0.804565,-1.06712,0.808181,-0.837107
-0.730469,-0.62793,0.353027,2.1875,1,-0.4375,-0.289429,0.499329,-0.139465,0.804626,-1.06665,0.807868,-0.837644
-0.740723,-0.614258,0.325684,2.6875,2.25,-2,-0.289185,0.499573,-0.140015,0.804443,-1.06699,0.807811,-0.839206
-0.737793,-0.612305,0.333984,-1.3125,0.4375,-1.25,-0.289429,0.499695,-0.140076,0.80426,-1.06792,0.80768,-0.839855
-0.737793,-0.624023,0.337891,-1.3125,0.375,-1.8125,-0.289795,0.499695,-0.140259,0.804138,-1.06895,0.807202,-0.84057
-0.725098,-0.635254,0.331055,0.6875,0.5625,-1,-0.289856,0.499695,-0.140259,0.804077,-1.06908,0.807089,-0.840613
-0.730957,-0.625977,0.334473,1.875,0.75,0,-0.289673,0.499756,-0.140564,0.804077,-1.06899,0.807049,-0.841259
-0.73291,-0.625488,0.333008,1.125,0.9375,0.4375,-0.289551,0.499878,-0.140686,0.804016,-1.06906,0.807192,-0.84172
-0.73584,-0.623047,0.333008,-1,0.25,0.4375,-0.289551,0.499878,-0.140686,0.804016,-1.06906,0.807192,-0.84172
-0.73584,-0.62207,0.334473,-0.5625,0.5,0.3125,-0.289551,0.499878,-0.140686,0.803955,-1.06904,0.807104,-0.841703
-0.73584,-0.623047,0.333008,0.8125,0,0.8125,-0.289612,0.499939,-0.140686,0.803955,-1.06937,0.807221,-0.841928
-0.740723,-0.617188,0.328613,1.25,-0.4375,0.9375,-0.289368,0.5,-0.140625,0.804016,-1.06888,0.807602,-0.841743
-0.740234,-0.612305,0.328125,0.3125,-1.0625,0.625,-0.289307,0.5,-0.140442,0.804077,-1.06862,0.807868,-0.841306
-0.734863,-0.621094,0.323242,0.6875,-1.3125,-0.25,-0.289368,0.499878,-0.140503,0.804138,-1.06851,0.807596,-0.841182
-0.736816,-0.617188,0.335938,1.875,-1.0625,-0.6875,-0.289185,0.499695,-0.140686,0.80426,-1.06772,0.807268,-0.840936
-0.741211,-0.615234,0.328125,1.4375,-0.625,-1.1875,-0.289124,0.499634,-0.14093,0.804321,-1.06759,0.807035,-0.841255
-0.734375,-0.615723,0.327637,0,-0.8125,-1,-0.289124,0.499634,-0.14093,0.80426,-1.06756,0.806947,-0.841239
-0.731934,-0.624023,0.335449,-0.5625,-0.25,-0.6875,-0.289124,0.499634,-0.14093,0.80426,-1.06756,0.806947,-0.841239
-0.732422,-0.624512,0.335938,-0.0625,0.1875,-0.75,-0.289124,0.499634,-0.14093,0.80426,-1.06756,0.806947,-0.841239
-0.730469,-0.619141,0.334473,0,0.25,-0.3125,-0.289185,0.499634,-0.14093,0.80426,-1.06772,0.806922,-0.841298
-0.731445,-0.623535,0.335449,0.3125,0.1875,0.125,-0.289185,0.499634,-0.14093,0.80426,-1.06772,0.806922,-0.841298
-0.733887,-0.621582,0.335449,0.3125,0.25,0.1875,-0.289185,0.499634,-0.14093,0.80426,-1.06772,0.806922,-0.841298
-0.733887,-0.625,0.33252,0.1875,-0.125,0.25,-0.289246,0.499634,-0.140991,0.804199,-1.0679,0.806758,-0.841471
-0.731445,-0.622559,0.336426,0.125,0.5,0.1875,-0.289246,0.499634,-0.140991,0.804199,-1.0679,0.806758,-0.841471
-0.730469,-0.619629,0.341309,0.6875,1,0.6875,-0.289063,0.499756,-0.141052,0.804199,-1.0678,0.807065,-0.841758
-0.735352,-0.617188,0.334961,0.6875,0.625,0.5625,-0.289063,0.499756,-0.141052,0.804199,-1.0678,0.807065,-0.841758
-0.733887,-0.623047,0.331055,0.4375,0.5,0.75,-0.289124,0.499756,-0.141052,0.804138,-1.06793,0.806952,-0.8418
-0.736328,-0.626953,0.338867,0.4375,0.875,0.75,-0.289124,0.499756,-0.141052,0.804138,-1.06793,0.806952,-0.8418
-0.73584,-0.618652,0.330566,0.5625,1.25,0.5625,-0.289001,0.500061,-0.141113,0.804016,-1.06844,0.807484,-0.842609
-0.737305,-0.622559,0.330078,1.0625,1.25,0.125,-0.288879,0.500244,-0.141235,0.803894,-1.06866,0.807682,-0.84322
-0.737793,-0.623047,0.324219,-0.0625,0.6875,0.4375,-0.28894,0.500305,-0.141235,0.803894,-1.06899,0.807799,-0.843444
-0.737305,-0.625977,0.338867,0.125,0.1875,0.75,-0.28894,0.500305,-0.141235,0.803894,-1.06899,0.807799,-0.843444
-0.737305,-0.621582,0.327637,1,0.1875,0,-0.288879,0.500366,-0.141357,0.803833,-1.06906,0.807775,-0.843798
-0.731934,-0.623535,0.336426,2,0.0625,0.625,-0.288574,0.500366,-0.141479,0.803894,-1.06838,0.807886,-0.843785
-0.72998,-0.625488,0.339844,3.1875,0.625,1.375,-0.288086,0.500366,-0.141724,0.804077,-1.06736,0.808148,-0.843892
-0.732422,-0.625488,0.341797,3.375,1.6875,1.5,-0.287537,0.500549,-0.141968,0.804077,-1.06661,0.808596,-0.844388
-0.733398,-0.623535,0.336914,2.5625,3.0625,2.1875,-0.286987,0.500977,-0.14209,0.803955,-1.0664,0.809539,-0.845253
-0.731934,-0.625,0.330078,2.6875,4.0625,3.0625,-0.286377,0.501709,-0.142151,0.803772,-1.0668,0.811182,-0.846746
-0.73877,-0.623535,0.330566,2.25,3.8125,3.875,-0.285767,0.50238,-0.142029,0.803589,-1.06692,0.812837,-0.84768
-0.739746,-0.616211,0.324219,2.625,3.5625,4.125,-0.285034,0.503113,-0.141907,0.803406,-1.06689,0.814687,-0.848668
-0.745605,-0.612305,0.321289,3.4375,2.75,3.375,-0.284241,0.503723,-0.141846,0.803284,-1.06644,0.816317,-0.849413
-0.753906,-0.599609,0.318848,3.1875,1.5625,1.8125,-0.283569,0.504211,-0.141785,0.803223,-1.06599,0.817703,-0.849958
-0.760742,-0.603516,0.321777,1.9375,-0.25,-0.25,-0.283264,0.504333,-0.141907,0.803284,-1.06565,0.818105,-0.850281
-0.755859,-0.601074,0.320313,0.625,-1.9375,-1.125,-0.283264,0.504211,-0.141907,0.803345,-1.06533,0.817908,-0.84996
-0.753906,-0.610352,0.330566,0.5,-2.5,-1.75,-0.283386,0.503906,-0.141968,0.803467,-1.06489,0.81727,-0.849402
-0.741211,-0.611328,0.329102,0.3125,-2.875,-2,-0.28363,0.503418,-0.142151,0.80365,-1.06437,0.81614,-0.848742
-0.736328,-0.611328,0.339844,-0.0625,-2.625,-1.8125,-0.283875,0.50293,-0.142273,0.803833,-1.06381,0.815061,-0.847952
-0.732422,-0.619141,0.335449,-0.8125,-3.0625,-2,-0.284363,0.502441,-0.142395,0.803955,-1.06386,0.813793,-0.847383
-0.731445,-0.625488,0.345215,-0.4375,-2.25,-1.5,-0.284729,0.501953,-0.142578,0.804138,-1.06367,0.812614,-0.846848
-0.731445,-0.621582,0.337402,0.25,-0.9375,-0.9375,-0.284729,0.501953,-0.142578,0.804138,-1.06367,0.812614,-0.846848
-0.72998,-0.628418,0.333984,0.125,0.3125,-0.3125,-0.28479,0.501892,-0.142639,0.804077,-1.06368,0.812306,-0.846856
-0.730469,-0.621094,0.338379,0.6875,1.6875,0.4375,-0.284729,0.502075,-0.142822,0.803955,-1.0641,0.81243,-0.847662
-0.739746,-0.624023,0.334961,0.875,2.1875,0.875,-0.284546,0.502441,-0.142944,0.803772,-1.06465,0.812994,-0.848703
-0.740723,-0.614258,0.324219,1.0625,2.1875,1.125,-0.284302,0.502869,-0.142944,0.803589,-1.06513,0.813827,-0.849589
-0.743164,-0.612305,0.319336,0.3125,1.4375,1.1875,-0.284241,0.503296,-0.142883,0.803406,-1.06604,0.814635,-0.850522
-0.740723,-0.61377,0.322754,0.5625,1,1.0625,-0.284119,0.503601,-0.142822,0.803223,-1.06645,0.815182,-0.851061
-0.745605,-0.609863,0.32666,0.6875,0.4375,0.9375,-0.284119,0.503662,-0.142822,0.803223,-1.06662,0.815325,-0.851229
-0.744629,-0.604492,0.323242,0.0625,-0.75,0.3125,-0.284119,0.503662,-0.142761,0.803223,-1.06658,0.815376,-0.851097
-0.750488,-0.605469,0.333984,-0.6875,-2.4375,-0.3125,-0.284241,0.503418,-0.142578,0.803345,-1.06613,0.815084,-0.850179
-0.751953,-0.601563,0.319336,-1.3125,-3.5,-1.625,-0.284607,0.503113,-0.142395,0.803467,-1.06615,0.814548,-0.84933
-0.749512,-0.601563,0.325684,-1.875,-4.6875,-2.625,-0.285095,0.502563,-0.142273,0.80365,-1.06588,0.813429,-0.848079
-0.749023,-0.60498,0.322266,-2.125,-5.75,-3.75,-0.285889,0.501831,-0.142212,0.803833,-1.06595,0.811707,-0.846757
-0.738281,-0.615723,0.335449,-2,-5.9375,-4,-0.286621,0.500854,-0.142273,0.804138,-1.06532,0.809519,-0.845014
-0.735352,-0.61084,0.343262,-0.3125,-4.75,-5.3125,-0.287231,0.499939,-0.142761,0.804443,-1.06486,0.807172,-0.844252
-0.730957,-0.618164,0.349121,0.625,-4.375,-5.625,-0.28772,0.498962,-0.143372,0.804749,-1.06401,0.804634,-0.84348
-0.729004,-0.610352,0.353027,2.875,-1.1875,-8.5625,-0.287964,0.49823,-0.144775,0.804871,-1.06368,0.801846,-0.844803
-0.723633,-0.613281,0.354004,2.9375,1.875,-11.25,-0.288391,0.497742,-0.146667,0.804688,-1.0647,0.798712,-0.847928
-0.719727,-0.609375,0.353027,3.375,3.9375,-14.3125,-0.28894,0.497437,-0.14917,0.80426,-1.06683,0.795101,-0.852897
-0.717285,-0.604492,0.34668,4.375,4.9375,-16.8125,-0.28949,0.497131,-0.1521,0.80365,-1.06917,0.790886,-0.858719
-0.720215,-0.603027,0.342773,5.8125,4.8125,-21.0625,-0.290161,0.496643,-0.15564,0.80304,-1.07171,0.78571,-0.865452
-0.721191,-0.606934,0.343262,5.8125,3.25,-24.875,-0.291138,0.495789,-0.159607,0.802429,-1.07431,0.779235,-0.872374
-0.719727,-0.618652,0.328125,5,3.375,-29.75,-0.292786,0.494873,-0.164185,0.801514,-1.07866,0.771419,-0.880907
-0.71875,-0.628418,0.325684,5.75,2.75,-35.375,-0.2948,0.49353,-0.169556,0.800476,-1.08319,0.761694,-0.890219
-0.708496,-0.648438,0.324707,6.75,1.6875,-42.125,-0.297363,0.491638,-0.175964,0.799255,-1.08814,0.749453,-0.900621
-0.702637,-0.677734,0.313477,10,-2.4375,-49.125,-0.300354,0.488831,-0.183411,0.798218,-1.09237,0.734492,-0.911152
-0.662598,-0.709961,0.338867,12,-1,-49.0625,-0.303162,0.485718,-0.191345,0.79718,-1.09559,0.718681,-0.921716
-0.664551,-0.711914,0.358398,12.875,-0.875,-51.375,-0.305847,0.482422,-0.199585,0.796143,-1.09816,0.702422,-0.932324
-0.635742,-0.695801,0.354004,6.875,-2.8125,-46,-0.308838,0.479248,-0.206421,0.795166,-1.10093,0.687572,-0.940547
-0.629395,-0.720215,0.338379,-0.625,-4,-40.75,-0.312683,0.476624,-0.211853,0.793823,-1.10608,0.674138,-0.947687
-0.628418,-0.765137,0.344727,-4.875,-5.25,-33.5625,-0.316711,0.474243,-0.215942,0.792542,-1.11151,0.6623,-0.95275
-0.60791,-0.78418,0.348145,-4,-5.5,-24.5,-0.319946,0.472168,-0.218994,0.791626,-1.11536,0.652819,-0.955949
-0.606934,-0.789551,0.341309,-0.1875,-6.625,-18,-0.322266,0.470276,-0.221313,0.791199,-1.11732,0.645402,-0.957606
-0.597656,-0.77832,0.345215,3.1875,-7.875,-12.1875,-0.323486,0.468323,-0.223022,0.791321,-1.11648,0.639629,-0.957313
-0.603516,-0.761719,0.341309,3.625,-8.4375,-7.5,-0.324219,0.466736,-0.223938,0.791748,-1.11509,0.635854,-0.956057
-0.608398,-0.754883,0.34668,1.75,-7.875,-4.9375,-0.32489,0.465393,-0.224365,0.792114,-1.11387,0.632919,-0.954335
-0.603027,-0.748047,0.347656,-0.1875,-8.5,-4.75,-0.325745,0.464111,-0.224487,0.79248,-1.11307,0.630251,-0.952266
-0.600586,-0.758789,0.348633,-0.5,-9.5,-3.4375,-0.32666,0.462708,-0.224426,0.792908,-1.11208,0.627529,-0.949612
-0.60498,-0.751953,0.35791,1.125,-8.875,-2.9375,-0.327209,0.461426,-0.224426,0.793518,-1.11064,0.625411,-0.947195
-0.600098,-0.745117,0.366211,1.875,-8.1875,-2.8125,-0.327454,0.460083,-0.224487,0.794128,-1.10839,0.623292,-0.944572
-0.59668,-0.736328,0.375977,1.5625,-8.25,-3.125,-0.327759,0.458679,-0.224548,0.7948,-1.10618,0.621089,-0.941883
-0.584961,-0.737305,0.369629,0.375,-7.8125,-2.9375,-0.328247,0.457397,-0.224548,0.795349,-1.10462,0.618933,-0.939445
-0.587402,-0.74707,0.378418,-0.0625,-7.3125,-2.1875,-0.328735,0.456238,-0.224426,0.795837,-1.10326,0.617046,-0.937029
-0.589355,-0.753418,0.376465,0.9375,-5.9375,-1.9375,-0.329041,0.455261,-0.224487,0.796265,-1.10196,0.615401,-0.935271
-0.583008,-0.756836,0.378418,0.875,-4.5,-2.125,-0.329407,0.454407,-0.22467,0.79657,-1.1011,0.613726,-0.934048
-0.576172,-0.750977,0.379883,1.1875,-3.5,-1.5625,-0.32959,0.453674,-0.224854,0.796814,-1.10008,0.612322,-0.932964
-0.578125,-0.758789,0.377441,1.5625,-2.4375,-1.25,-0.329651,0.453186,-0.225098,0.796997,-1.09932,0.611344,-0.93246
-0.587891,-0.747559,0.379395,0.8125,-1.8125,-0.5625,-0.329651,0.452881,-0.225159,0.79718,-1.09874,0.610904,-0.931956
-0.589844,-0.749023,0.380859,0.5625,-1.0625,0.75,-0.32959,0.452759,-0.225037,0.797302,-1.09831,0.610933,-0.931431
-0.591797,-0.749023,0.384766,0.125,-0.875,1,-0.329468,0.452698,-0.224854,0.797424,-1.09785,0.611163,-0.930879
-0.585938,-0.745605,0.385254,0.4375,-0.625,0.9375,-0.329468,0.452698,-0.224854,0.797424,-1.09785,0.611163,-0.930879
-0.585938,-0.744629,0.374023,0.625,-0.875,1.5,-0.329346,0.452698,-0.224609,0.797546,-1.09749,0.611561,-0.930339
-0.586914,-0.747559,0.377441,1.375,-0.4375,2.125,-0.329041,0.452698,-0.224426,0.797729,-1.09675,0.612079,-0.929823
-0.591797,-0.737793,0.371582,0.5625,-0.125,2.25,-0.328796,0.452881,-0.224121,0.797791,-1.09646,0.612882,-0.92947
-0.590332,-0.745117,0.377441,-0.8125,-0.1875,2.0625,-0.328735,0.453064,-0.223694,0.797852,-1.09653,0.613684,-0.928989
-0.589844,-0.748535,0.381836,0.3125,-0.75,2.1875,-0.328613,0.453064,-0.223389,0.797974,-1.09614,0.614132,-0.928324
-0.59375,-0.743164,0.373047,2.25,-0.375,1.875,-0.328186,0.453125,-0.223267,0.798157,-1.09529,0.614786,-0.927988
-0.59082,-0.744141,0.384766,2.8125,0,1.3125,-0.327698,0.453064,-0.223328,0.798401,-1.09414,0.615155,-0.92773
-0.588379,-0.731445,0.381836,2,0.5,-0.1875,-0.327332,0.453064,-0.223511,0.798462,-1.0934,0.615277,-0.927881
-0.591309,-0.741211,0.370605,1.125,0.1875,-0.6875,-0.327271,0.453125,-0.223694,0.798401,-1.09347,0.615215,-0.928334
-0.597168,-0.732422,0.377441,0.6875,0.0625,-1.5625,-0.327209,0.453125,-0.223877,0.798401,-1.09342,0.615102,-0.928668
-0.59375,-0.734863,0.366699,-0.0625,0.125,-2.8125,-0.327454,0.453125,-0.224182,0.798218,-1.09407,0.61452,-0.929396
-0.590332,-0.743164,0.377441,-0.125,-0.5625,-3.6875,-0.32782,0.452942,-0.22467,0.798035,-1.0947,0.613367,-0.930165
-0.594238,-0.748535,0.377441,0.625,-0.625,-5.1875,-0.328186,0.452576,-0.225342,0.797913,-1.09503,0.611778,-0.930916
-0.588867,-0.744141,0.378418,1.1875,-1.0625,-6.125,-0.328552,0.452087,-0.226196,0.797791,-1.09518,0.609805,-0.931768
-0.593262,-0.746582,0.371582,1,-1.6875,-6.5,-0.328979,0.451599,-0.227051,0.797607,-1.09546,0.607733,-0.93264
-0.584961,-0.748047,0.369141,-0.125,-2.1875,-6.125,-0.329651,0.451111,-0.227722,0.797485,-1.09623,0.60574,-0.933317
-0.583984,-0.74707,0.373535,-0.5625,-3.125,-6,-0.330322,0.450439,-0.228271,0.797363,-1.09653,0.603492,-0.933335
-0.585938,-0.747559,0.371094,-0.375,-4.3125,-6.5,-0.331116,0.449646,-0.228821,0.797363,-1.0969,0.601076,-0.933201
-0.588867,-0.745605,0.371094,-0.25,-5.8125,-7.75,-0.33197,0.448608,-0.229431,0.797424,-1.09692,0.598173,-0.932711
-0.586426,-0.743652,0.361816,-0.375,-7.375,-9.625,-0.333008,0.447327,-0.230164,0.797485,-1.09691,0.594604,-0.932053
-0.580566,-0.74707,0.361328,0.5625,-9.75,-12.125,-0.33429,0.445557,-0.231201,0.797668,-1.09661,0.58985,-0.931146
-0.578125,-0.743652,0.368652,2.375,-12.75,-15.875,-0.335693,0.443054,-0.232666,0.798035,-1.09531,0.583486,-0.929663
-0.574219,-0.745605,0.354004,4.0625,-16.5,-20.5,-0.337402,0.439819,-0.234619,0.798523,-1.09348,0.575304,-0.927859
-0.575684,-0.736816,0.355957,6.8125,-21.125,-26.9375,-0.339233,0.435547,-0.237366,0.799255,-1.09029,0.564723,-0.925675
-0.570313,-0.739258,0.36084,8.6875,-26.125,-35.125,-0.341614,0.430054,-0.240967,0.800171,-1.08643,0.551068,-0.923175
-0.570801,-0.749512,0.37207,10.25,-31.6875,-45.1875,-0.344727,0.423157,-0.245728,0.801086,-1.08215,0.533503,-0.920764
-0.542969,-0.771973,0.398438,13.25,-37.5625,-50.6875,-0.348022,0.414734,-0.25116,0.802307,-1.07597,0.512858,-0.917137
-0.52002,-0.802246,0.385742,18.75,-42.125,-56.625,-0.351501,0.405212,-0.257568,0.80365,-1.06899,0.489547,-0.913895
-0.496582,-0.797852,0.394531,21.0625,-47,-64.25,-0.355286,0.394348,-0.264832,0.805054,-1.06108,0.463142,-0.910534
-0.444336,-0.79834,0.422363,22.125,-54,-60.9375,-0.358948,0.382263,-0.271423,0.807068,-1.05126,0.435839,-0.904345
-0.397949,-0.819336,0.462891,29.4375,-57.125,-52.375,-0.361145,0.369507,-0.277222,0.809998,-1.03774,0.409733,-0.895685
-0.362305,-0.782227,0.513672,28,-52.5,-49.1875,-0.362671,0.3573,-0.282776,0.812927,-1.02429,0.385269,-0.887953
-0.347168,-0.695801,0.502441,13.8125,-54.4375,-56.875,-0.366211,0.345154,-0.288147,0.814697,-1.01559,0.359009,-0.881177
-0.307129,-0.78418,0.519043,-4.1875,-54.625,-54.3125,-0.37262,0.333801,-0.292175,0.815063,-1.01407,0.33249,-0.874256
-0.281738,-0.870605,0.538574,-10.25,-45.8125,-50,-0.379517,0.324158,-0.295959,0.814392,-1.01619,0.308196,-0.869681
-0.262695,-0.881836,0.546875,-4.1875,-35.9375,-45.125,-0.384705,0.315857,-0.299988,0.813782,-1.01688,0.287196,-0.867175
-0.251465,-0.867188,0.553223,2.25,-28.5,-39.3125,-0.388062,0.308655,-0.304016,0.813416,-1.01535,0.269423,-0.865831
-0.226563,-0.868164,0.54541,2.3125,-22.3125,-30.75,-0.390747,0.302856,-0.30719,0.81311,-1.01417,0.255206,-0.864711
-0.208984,-0.881836,0.543945,1.5,-18.0625,-26.5625,-0.393188,0.298035,-0.31012,0.812683,-1.01377,0.242927,-0.864465
-0.20752,-0.865723,0.538086,0.1875,-15.5625,-23.5,-0.395386,0.293884,-0.312561,0.812134,-1.01359,0.232265,-0.864103
-0.197754,-0.86084,0.53125,-0.3125,-15.25,-20.5,-0.397522,0.290039,-0.314575,0.811707,-1.01366,0.222586,-0.863371
-0.208496,-0.875488,0.535156,0.875,-15.875,-16.25,-0.399231,0.286499,-0.315918,0.811584,-1.01314,0.214427,-0.861691
-0.216309,-0.876465,0.534668,3.3125,-14.8125,-13.125,-0.40033,0.283386,-0.316895,0.811768,-1.01186,0.207856,-0.85979
-0.218262,-0.871094,0.539551,5.9375,-12.125,-10.875,-0.400696,0.28064,-0.31781,0.812195,-1.00953,0.20256,-0.858135
-0.216309,-0.856445,0.543457,5.75,-9.5,-8.9375,-0.400757,0.278503,-0.318665,0.812561,-1.00729,0.198489,-0.857094
-0.20459,-0.850098,0.543457,4.875,-8,-5,-0.400696,0.276733,-0.319031,0.813049,-1.00517,0.195572,-0.855574
-0.20166,-0.84375,0.54541,4.25,-7.625,-4.9375,-0.400635,0.275085,-0.319397,0.813477,-1.00319,0.192821,-0.85421
-0.199219,-0.838379,0.543457,1.875,-7.1875,-4.6875,-0.40094,0.273682,-0.31958,0.813782,-1.00225,0.190316,-0.852896
-0.204102,-0.863281,0.533203,-0.5625,-7.125,-5.3125,-0.401733,0.272522,-0.319763,0.813721,-1.00259,0.187695,-0.851945
-0.202148,-0.87207,0.541504,-0.1875,-7.6875,-3.5625,-0.402405,0.271301,-0.319641,0.813782,-1.00254,0.18537,-0.850289
-0.188477,-0.868164,0.54248,3.1875,-6.8125,-1.5625,-0.402527,0.270081,-0.319519,0.814209,-1.00141,0.183604,-0.848594
-0.180664,-0.840332,0.547363,4.625,-5.375,-0.875,-0.402161,0.268982,-0.319519,0.814758,-0.999417,0.182323,-0.847199
-0.186523,-0.830566,0.547363,0.1875,-4.875,0.25,-0.402283,0.26825,-0.319153,0.815063,-0.998791,0.181496,-0.84562
-0.182129,-0.851074,0.549316,-3,-4.375,0.625,-0.402893,0.267822,-0.318604,0.815125,-0.999502,0.180875,-0.84415
-0.188965,-0.86084,0.540039,-2,-3.625,1.375,-0.403442,0.267578,-0.318054,0.815186,-1.00031,0.180599,-0.842907
-0.184082,-0.857422,0.537109,-1.0625,-2.75,1.5,-0.403748,0.267395,-0.317566,0.815247,-1.00066,0.180532,-0.841785
-0.186035,-0.845215,0.531738,0.3125,-2.4375,0.25,-0.40387,0.267151,-0.317322,0.815369,-1.00061,0.180315,-0.841046
-0.193848,-0.84375,0.537598,1.5625,-2.875,-0.3125,-0.403809,0.266724,-0.3172,0.815552,-0.999975,0.179846,-0.840271
-0.20459,-0.846191,0.539551,1.1875,-3.625,-0.9375,-0.403809,0.266296,-0.317017,0.815796,-0.999491,0.17942,-0.839419
-0.198242,-0.848633,0.541504,-0.25,-3.75,-1.5625,-0.404053,0.265869,-0.316833,0.815857,-0.999483,0.178738,-0.838577
-0.186035,-0.851563,0.536133,-0.625,-3.0625,-1.9375,-0.40448,0.265381,-0.316833,0.815796,-0.999816,0.17762,-0.838045
-0.178223,-0.851563,0.546387,-0.5625,-2.5625,-1,-0.404724,0.264954,-0.316772,0.815857,-0.999846,0.176838,-0.837456
-0.177734,-0.847656,0.544434,-0.0625,-2,-0.4375,-0.404907,0.264648,-0.316711,0.815918,-0.99989,0.176297,-0.83701
-0.184082,-0.852051,0.539063,-0.625,-1.4375,-0.8125,-0.405151,0.264526,-0.31665,0.815857,-1.00025,0.175955,-0.836781
-0.181641,-0.852051,0.541016,-1.6875,-1.0625,-0.6875,-0.405457,0.264404,-0.316589,0.815735,-1.00072,0.175541,-0.836547
-0.178711,-0.853027,0.537109,-2.125,-1,0.125,-0.405884,0.264465,-0.316406,0.815613,-1.00166,0.175453,-0.836353
-0.181152,-0.857422,0.536621,-1.0625,-0.625,0.5,-0.406128,0.264526,-0.316223,0.815552,-1.00222,0.175516,-0.836119
-0.182617,-0.85498,0.538086,-0.1875,0,0.5,-0.406128,0.264526,-0.316223,0.815491,-1.00219,0.175483,-0.836092
-0.185059,-0.854004,0.52832,-0.5,0.1875,0.1875,-0.406189,0.264587,-0.316162,0.815491,-1.00239,0.175595,-0.836071
-0.184082,-0.850098,0.537109,-0.9375,0.3125,0.125,-0.406189,0.264587,-0.316162,0.815491,-1.00239,0.175595,-0.836071
-0.19043,-0.854492,0.533203,-1.25,0,0.25,-0.406372,0.264832,-0.31604,0.815369,-1.00302,0.175917,-0.836162
-0.190918,-0.853516,0.530273,-1.4375,-0.75,1.0625,-0.406616,0.265015,-0.315674,0.815308,-1.00368,0.176333,-0.835716
-0.189941,-0.852539,0.537109,-1.625,-0.75,0.8125,-0.40686,0.265198,-0.315369,0.815308,-1.00438,0.176732,-0.835423
-0.186035,-0.854492,0.526855,-1.125,-0.9375,0.6875,-0.407104,0.265259,-0.315063,0.815247,-1.00489,0.176896,-0.834939
-0.185547,-0.859863,0.538086,-0.4375,-0.8125,0.625,-0.407104,0.26532,-0.315063,0.815247,-1.00497,0.176997,-0.835022
-0.187988,-0.853027,0.530273,-0.1875,-1.125,0.4375,-0.407227,0.26532,-0.31488,0.815247,-1.0052,0.177071,-0.834688
-0.1875,-0.857422,0.538574,-0.5625,-1.125,0.375,-0.407349,0.265259,-0.314636,0.815247,-1.00533,0.177094,-0.834147
-0.177246,-0.848633,0.536621,-1,-0.625,0.5,-0.407349,0.265259,-0.314636,0.815247,-1.00533,0.177094,-0.834147
-0.179199,-0.855469,0.530762,0.5625,-0.625,0.875,-0.40741,0.265259,-0.314636,0.815247,-1.00547,0.177055,-0.834169
-0.1875,-0.852539,0.537109,0.5625,-0.5,0.4375,-0.40741,0.26532,-0.314636,0.815247,-1.00554,0.177156,-0.834252
-0.183105,-0.848145,0.531738,-0.4375,-0.5,0.4375,-0.40741,0.26532,-0.314636,0.815247,-1.00554,0.177156,-0.834252
-0.188477,-0.851563,0.540039,0.125,-0.5,0.125,-0.40741,0.26532,-0.314636,0.815247,-1.00554,0.177156,-0.834252
-0.188477,-0.844727,0.535156,-0.5625,-0.4375,-0.1875,-0.407349,0.265381,-0.314636,0.815247,-1.00548,0.177296,-0.834312
-0.189453,-0.85791,0.538086,-1.6875,-0.1875,-0.875,-0.407654,0.265442,-0.314575,0.815063,-1.00616,0.177154,-0.834301
-0.182617,-0.85498,0.534668,-1.4375,0,-1.125,-0.407959,0.265503,-0.314697,0.81488,-1.00688,0.17686,-0.834667
-0.185547,-0.85791,0.53125,-0.625,0,-0.875,-0.407959,0.265503,-0.314636,0.81488,-1.00687,0.17691,-0.834542
-0.186035,-0.858887,0.533691,-0.4375,-0.0625,-0.5625,-0.407959,0.265564,-0.314636,0.81488,-1.00694,0.177011,-0.834624
-0.191406,-0.847656,0.537109,-0.625,-0.5625,-0.25,-0.407959,0.265564,-0.314636,0.81488,-1.00694,0.177011,-0.834624
-0.191406,-0.845703,0.536133,-3,-1.125,0.0625,-0.408386,0.265686,-0.314331,0.814758,-1.00793,0.177128,-0.834264
-0.192383,-0.856445,0.531738,-6.0625,-1.4375,0.0625,-0.409302,0.26593,-0.313904,0.814392,-1.01005,0.177104,-0.833892
-0.183594,-0.865723,0.527832,-4.5,-1.4375,0.1875,-0.410095,0.266052,-0.313538,0.814087,-1.01178,0.176941,-0.833463
-0.178711,-0.869629,0.525879,-1.6875,-1.125,0.25,-0.410522,0.266052,-0.313354,0.813904,-1.01262,0.176722,-0.833163
-0.183105,-0.853027,0.529297,-0.6875,-1.1875,0.5,-0.410645,0.265991,-0.31311,0.813965,-1.01278,0.17678,-0.832649
-0.183105,-0.855957,0.521484,-1.75,-1.5,0.25,-0.411072,0.265991,-0.312866,0.813843,-1.01364,0.176646,-0.832251
-0.187988,-0.852051,0.530273,-2.6875,-1.75,-0.25,-0.411499,0.26593,-0.312622,0.813782,-1.01444,0.176445,-0.831796
-0.1875,-0.852051,0.52832,-3.1875,-1.75,-0.5,-0.411987,0.26593,-0.312378,0.813599,-1.01541,0.17624,-0.831395
-0.186035,-0.861816,0.524902,-3.375,-1.5625,-1,-0.412659,0.26593,-0.312195,0.813354,-1.01679,0.175836,-0.831159
-0.181641,-0.862793,0.522949,-3.0625,-1.0625,-1.75,-0.413269,0.265869,-0.312195,0.813049,-1.01798,0.175183,-0.831168
-0.175293,-0.863281,0.526855,-2.375,-0.75,-1.1875,-0.413757,0.265808,-0.312195,0.812805,-1.01892,0.174641,-0.831158
-0.180664,-0.866211,0.527344,-0.5625,-0.5,-0.25,-0.413757,0.265808,-0.312195,0.812805,-1.01892,0.174641,-0.831158
-0.179199,-0.85791,0.52002,-1.25,-0.4375,0.1875,-0.414001,0.265869,-0.312073,0.812744,-1.0195,0.174657,-0.831054
-0.183105,-0.863281,0.528809,-4.0625,-0.375,0.5,-0.414551,0.266113,-0.311768,0.8125,-1.02087,0.174836,-0.830858
-0.179199,-0.876465,0.519043,-3.0625,-0.0625,1,-0.4151,0.266418,-0.311462,0.812256,-1.02232,0.175117,-0.830746
-0.18457,-0.871094,0.516602,0.125,0.375,0.875,-0.4151,0.266418,-0.311401,0.812195,-1.02228,0.175136,-0.830595
-0.187988,-0.862305,0.516113,0.625,0.5625,1.125,-0.414978,0.266724,-0.311279,0.812256,-1.02237,0.175852,-0.830744
-0.184082,-0.866699,0.515625,-0.5625,0.1875,0.875,-0.414978,0.266724,-0.311279,0.812256,-1.02237,0.175852,-0.830744
-0.182129,-0.864258,0.519531,-1,0.1875,0.5625,-0.414978,0.266724,-0.311279,0.812256,-1.02237,0.175852,-0.830744
