acc_x,acc_y,acc_z,gyro_x,gyro_y,gyro_z,ori_x,ori_y,ori_z,ori_w,orie_x,orie_y,orie_z
0.281738,0.0224609,0.959473,-1.875,-1.3125,-0.25,-0.0238037,-0.13739,-0.25177,0.957642,0.0245401,-0.278722,-0.517573
0.272949,0.034668,0.959473,-0.5625,-0.1875,0.6875,-0.0237427,-0.137451,-0.25177,0.957642,0.0246943,-0.278812,-0.517602
0.272949,0.0371094,0.958008,0.5,-1.375,-1.1875,-0.0235596,-0.137695,-0.252014,0.957581,0.0252628,-0.279197,-0.518228
0.272949,0.0332031,0.97168,0.0625,-1.625,-0.125,-0.0234985,-0.137939,-0.252014,0.95752,0.0255187,-0.279633,-0.518275
0.279785,0.0224609,0.969238,-0.5,-1.5625,1.0625,-0.0236816,-0.138184,-0.251831,0.95752,0.0252334,-0.280207,-0.517876
0.275879,0.0351562,0.96875,-1.1875,-0.125,2.1875,-0.0238037,-0.138123,-0.251526,0.957642,0.0248639,-0.280169,-0.5172
0.272949,0.0429688,0.966309,-0.3125,1.25,1.375,-0.0235596,-0.137878,-0.251343,0.957703,0.0251629,-0.279563,-0.516817
0.266113,0.0449219,0.963867,-0.4375,1.1875,0.3125,-0.0233154,-0.137634,-0.251343,0.957764,0.0255145,-0.278967,-0.516847
0.262695,0.0405273,0.958496,0.0625,0.25,-0.5625,-0.0232544,-0.137634,-0.251343,0.957764,0.0256359,-0.278935,-0.516862
0.266602,0.0424805,0.955078,-0.75,-1.375,-0.1875,-0.0231934,-0.137756,-0.251404,0.957703,0.0258434,-0.279132,-0.517017
0.273926,0.0336914,0.963379,-1.375,-2,-0.4375,-0.0233765,-0.138062,-0.251526,0.957642,0.0256812,-0.279824,-0.517291
0.275879,0.0317383,0.968262,-0.125,-0.6875,-0.875,-0.0233765,-0.138062,-0.251526,0.957642,0.0256812,-0.279824,-0.517291
0.274902,0.0253906,0.965332,0.3125,-0.5,-1.25,-0.0233154,-0.138123,-0.251709,0.957581,0.0258911,-0.279905,-0.517706
0.27832,0.0322266,0.962891,-0.25,-0.9375,-0.4375,-0.0233154,-0.138123,-0.251709,0.957581,0.0258911,-0.279905,-0.517706
0.279785,0.0205078,0.967773,-1.5625,-0.9375,1.25,-0.0236816,-0.138245,-0.251526,0.957642,0.0251725,-0.280349,-0.51726
0.281738,0.0297852,0.961426,-1.5625,-0.375,0.875,-0.0238647,-0.138306,-0.251404,0.957642,0.0248058,-0.28056,-0.516954
0.279297,0.0224609,0.964355,0.6875,1.4375,1.1875,-0.0237427,-0.138062,-0.251221,0.957703,0.0248619,-0.280018,-0.516541
0.26709,0.0410156,0.959961,1.6875,0.75,0.625,-0.0232544,-0.138,-0.251099,0.957764,0.0257627,-0.279653,-0.516402
0.263672,0.0439453,0.962891,-1.3125,-0.6875,1.8125,-0.0232544,-0.137939,-0.250854,0.957825,0.0256569,-0.279537,-0.515866
0.262207,0.0361328,0.974609,-2.375,-0.9375,1.3125,-0.0234985,-0.137817,-0.250732,0.957886,0.0250676,-0.279433,-0.515529
0.270508,0.0351562,0.958008,0.1875,0.875,-0.3125,-0.0234985,-0.137817,-0.250732,0.957886,0.0250676,-0.279433,-0.515529
0.262207,0.0439453,0.962402,1,0.6875,-0.75,-0.0230103,-0.137695,-0.250854,0.957886,0.0260087,-0.27894,-0.515895
0.260742,0.034668,0.970215,0.3125,-2.0625,-0.5625,-0.0228882,-0.137878,-0.250977,0.957825,0.0263878,-0.27923,-0.516217
0.266602,0.034668,0.964844,-2.6875,-2.5,0.0625,-0.0232544,-0.138062,-0.251038,0.957764,0.0257779,-0.279772,-0.516279
0.27832,0.043457,0.962891,-1.6875,-1.0625,-0.375,-0.0233765,-0.138245,-0.251099,0.957703,0.0256539,-0.280186,-0.516402
0.271484,0.0385742,0.965332,1.5,0.625,-2.5,-0.0228271,-0.138184,-0.251526,0.957642,0.0268398,-0.27978,-0.517458
0.270508,0.0380859,0.959473,-0.1875,-0.625,-2.6875,-0.0227051,-0.138306,-0.252014,0.95752,0.0272947,-0.279947,-0.518562
0.274414,0.0385742,0.958496,-1.375,-1.1875,-2.0625,-0.0227661,-0.138428,-0.25238,0.957397,0.0273504,-0.280204,-0.519345
0.283203,0.0253906,0.958984,-0.8125,-3.625,-2.1875,-0.0230103,-0.139099,-0.252747,0.957214,0.0273427,-0.281635,-0.52019
0.283203,0.0195312,0.964355,2.1875,-2.625,-1.0625,-0.0228271,-0.139648,-0.252869,0.957092,0.0280461,-0.282604,-0.520591
0.278809,0.0351562,0.966309,-2.1875,-2,1.375,-0.0231934,-0.139893,-0.252686,0.957092,0.0273965,-0.283275,-0.520146
0.275391,0.0302734,0.963379,-1.3125,-4,0.5,-0.0235596,-0.140442,-0.252625,0.957031,0.0269504,-0.284542,-0.520024
0.282715,0.03125,0.969727,-1.625,-3.75,0.1875,-0.0239258,-0.140991,-0.252625,0.956909,0.026525,-0.285795,-0.520012
0.274902,0.0322266,0.97168,-1.625,-1.1875,1.375,-0.0241089,-0.140991,-0.252441,0.95697,0.0261035,-0.2859,-0.51958
0.272949,0.043457,0.952637,-0.125,-1.0625,-1.1875,-0.0239258,-0.141174,-0.252625,0.956909,0.0266243,-0.28616,-0.520057
0.273926,0.0454102,0.962402,1.0625,-2.0625,-2.5625,-0.0234985,-0.141479,-0.253052,0.956726,0.0277757,-0.286511,-0.521123
0.268555,0.0415039,0.96582,-1.8125,-3,-1.25,-0.0236816,-0.141785,-0.253357,0.956604,0.0276732,-0.287195,-0.521785
0.274902,0.0322266,0.954102,-2.5,-3.375,-2.4375,-0.0241089,-0.142151,-0.253784,0.956421,0.0271575,-0.288119,-0.522648
0.284668,0.0322266,0.958984,-1.75,-2.5,-2.25,-0.024353,-0.142517,-0.254211,0.956238,0.0270072,-0.288946,-0.523558
0.271484,0.0205078,0.95752,-0.75,-1.75,-2.1875,-0.0245361,-0.142639,-0.254578,0.956116,0.0268244,-0.289269,-0.524313
0.286133,0.0449219,0.956055,-1.3125,-3.875,-3.1875,-0.0245972,-0.143311,-0.255188,0.955872,0.0272653,-0.2906,-0.525735
0.282715,0.027832,0.961914,0.25,-3.75,-2.1875,-0.0246582,-0.14386,-0.255493,0.955688,0.0275463,-0.291689,-0.526466
0.286133,0.0405273,0.95752,0.5,-4.375,-3.1875,-0.0244751,-0.144653,-0.256042,0.955444,0.0285262,-0.29313,-0.527849
0.293457,0.0419922,0.967773,-0.6875,-3.4375,-1.8125,-0.0245361,-0.145264,-0.256348,0.955261,0.0288435,-0.294341,-0.528599
0.287598,0.046875,0.962891,-0.9375,-3.9375,-2,-0.0245972,-0.145874,-0.256714,0.955078,0.0291806,-0.295555,-0.529488
0.295898,0.0390625,0.956543,-0.0625,-3.25,-3.125,-0.0245361,-0.146484,-0.257263,0.954834,0.0298215,-0.296695,-0.530797
0.291992,0.0385742,0.956055,-0.0625,0.25,-3.1875,-0.024353,-0.146484,-0.257751,0.954712,0.0303421,-0.296584,-0.531896
0.290527,0.0419922,0.938965,-0.625,-3.4375,-2.5,-0.024353,-0.147095,-0.25824,0.954468,0.0308451,-0.297752,-0.533054
0.287109,0.0263672,0.948242,0.125,-5.4375,-3.3125,-0.0245361,-0.147949,-0.258728,0.954224,0.0311216,-0.299507,-0.53423
0.296387,0.0253906,0.95166,-0.5625,-5.5,-1.375,-0.0249023,-0.148865,-0.258911,0.954041,0.0309714,-0.301488,-0.534712
0.291504,0.0336914,0.962891,-0.3125,-4.6875,-0.4375,-0.0250854,-0.149536,-0.259033,0.953857,0.0310311,-0.302878,-0.535038
0.291992,0.0400391,0.967285,-0.9375,-5.0625,-2.0625,-0.0252075,-0.150208,-0.259399,0.953674,0.0312899,-0.304248,-0.535937
0.29541,0.0483398,0.961914,1.4375,-3.3125,-3.875,-0.0247803,-0.150818,-0.26001,0.95343,0.032692,-0.30519,-0.537497
0.290527,0.0405273,0.966309,0.25,-3.375,-4.1875,-0.0246582,-0.151306,-0.260681,0.953186,0.0334374,-0.306057,-0.539081
0.293457,0.0424805,0.955566,-0.625,-3.5,-4.5,-0.0246582,-0.151794,-0.261475,0.952881,0.033983,-0.306978,-0.540883
0.289062,0.0527344,0.952148,-0.125,-3.875,-4.1875,-0.0244751,-0.152344,-0.262207,0.952576,0.0349112,-0.307916,-0.542615
0.293945,0.0458984,0.953125,-0.4375,-4.8125,-5.8125,-0.0244141,-0.153076,-0.263184,0.952209,0.0357848,-0.309279,-0.544898
0.304199,0.0415039,0.947266,-0.8125,-6.125,-6.125,-0.0245972,-0.154114,-0.26416,0.951721,0.036358,-0.311348,-0.547149
0.304688,0.0317383,0.955078,-0.375,-5.1875,-4.6875,-0.0247803,-0.154907,-0.264954,0.951416,0.0367257,-0.312978,-0.549001
0.307617,0.0439453,0.955078,0.3125,-5.0625,-4.9375,-0.0247192,-0.155762,-0.265747,0.95105,0.0376227,-0.314575,-0.550913
0.307617,0.0527344,0.954102,-0.25,-6.1875,-4,-0.0247192,-0.156799,-0.266418,0.950684,0.0384687,-0.316565,-0.552588
0.308594,0.0458984,0.947266,-1.6875,-8.125,-4,-0.0251465,-0.158081,-0.26709,0.950256,0.0386129,-0.319264,-0.554192
0.321777,0.0400391,0.951172,-2.5625,-7.6875,-3.5,-0.0258179,-0.159302,-0.2677,0.94989,0.0382148,-0.321997,-0.555601
0.320312,0.0493164,0.949219,-0.625,-5.3125,-4.125,-0.0258789,-0.160217,-0.268433,0.949524,0.0389004,-0.323781,-0.557375
0.317383,0.0458984,0.94043,0.375,-5.9375,-5.75,-0.0258179,-0.161255,-0.269348,0.949097,0.039972,-0.32573,-0.559618
0.327148,0.0463867,0.948242,-1.5625,-5.625,-2.375,-0.0261841,-0.162231,-0.269775,0.948792,0.039985,-0.327815,-0.560657
0.327148,0.0380859,0.945312,-0.75,-6.25,-1.625,-0.0265503,-0.163269,-0.27002,0.948547,0.0399704,-0.330034,-0.561326
0.324219,0.0478516,0.945312,-2.125,-6.1875,0.5,-0.0270996,-0.164185,-0.269958,0.948364,0.0394087,-0.332117,-0.561229
0.327148,0.043457,0.954102,-1.375,-5.875,0.5625,-0.0275269,-0.1651,-0.269897,0.948242,0.0390873,-0.334152,-0.561198
0.327148,0.0429688,0.948242,-1.625,-6.125,-0.125,-0.0279541,-0.166016,-0.269958,0.947998,0.0388157,-0.336153,-0.56139
0.328125,0.0419922,0.942383,-2.5,-6.5625,0.375,-0.0286255,-0.166931,-0.269958,0.947876,0.0380265,-0.338333,-0.561428
0.333008,0.0493164,0.949219,-1.75,-7,1.5625,-0.0291138,-0.16803,-0.269714,0.947693,0.0376302,-0.340742,-0.560987
0.333984,0.0429688,0.944824,-0.5625,-5.1875,2.5,-0.0294189,-0.168823,-0.269287,0.947693,0.0373404,-0.342486,-0.560166
0.335938,0.0400391,0.93457,-1.875,-8.1875,0.375,-0.0300293,-0.170105,-0.269287,0.947449,0.0368978,-0.345327,-0.560284
0.348633,0.034668,0.950195,-1.125,-6.6875,0.1875,-0.0305786,-0.171204,-0.269226,0.947205,0.0364461,-0.347762,-0.560219
0.346191,0.0322266,0.947754,-2.375,-4.375,1,-0.031189,-0.171814,-0.269104,0.947144,0.0355444,-0.349312,-0.559921
0.335449,0.0566406,0.944824,-1.4375,-2.0625,0.375,-0.03125,-0.172058,-0.269104,0.947083,0.0355719,-0.349817,-0.559953
0.34668,0.0454102,0.929199,-2.4375,-4.3125,-0.375,-0.0316772,-0.172729,-0.269226,0.946899,0.035172,-0.351356,-0.560238
0.341309,0.0405273,0.938477,-0.0625,-5,0.5,-0.0318604,-0.173523,-0.269165,0.946777,0.0352648,-0.353013,-0.560246
0.346191,0.0405273,0.950684,-1,-4.75,-1,-0.0321045,-0.174255,-0.269348,0.946594,0.0352932,-0.354576,-0.560751
0.343262,0.0478516,0.947754,-0.5,-4.375,-0.5625,-0.0321655,-0.174927,-0.26947,0.946411,0.0356317,-0.355907,-0.561153
0.348145,0.0561523,0.945801,-0.25,-3.875,0.25,-0.0321045,-0.175537,-0.269409,0.94635,0.0361031,-0.357078,-0.561209
0.342285,0.043457,0.939453,-2.0625,-4.5,-1.6875,-0.0324707,-0.176147,-0.269775,0.946106,0.0358873,-0.358455,-0.562033
0.351074,0.0415039,0.936035,-2.75,-3.5,-2.0625,-0.0328979,-0.176575,-0.270203,0.945862,0.0354622,-0.359503,-0.562917
0.345215,0.0366211,0.932129,-1.375,-4.25,-0.8125,-0.0332642,-0.177185,-0.270325,0.94574,0.0351477,-0.36091,-0.563234
0.352051,0.0380859,0.915527,-0.5,-5.5625,-1.375,-0.0335083,-0.178162,-0.270569,0.945496,0.0353562,-0.362951,-0.563942
0.348633,0.0327148,0.934082,-1.0625,-6.1875,-0.75,-0.0339355,-0.179016,-0.270691,0.945251,0.0350763,-0.364843,-0.564266
0.355469,0.0395508,0.944824,-0.3125,-6.375,-0.25,-0.0341797,-0.179993,-0.270691,0.945068,0.0351892,-0.366891,-0.564438
0.36377,0.03125,0.949707,-2.375,-5,-0.875,-0.034729,-0.180664,-0.270874,0.944824,0.0345765,-0.368489,-0.564802
0.365723,0.0385742,0.945801,-2.125,-2.625,-0.3125,-0.0351562,-0.18103,-0.270996,0.944763,0.0339878,-0.369464,-0.565046
0.357422,0.0390625,0.936035,-0.875,-2,-1.375,-0.0352173,-0.181274,-0.27124,0.94458,0.0341215,-0.369942,-0.565592
0.360352,0.0488281,0.927734,-0.625,-2.5625,-1.0625,-0.0352173,-0.181763,-0.271484,0.944458,0.0345229,-0.370902,-0.566275
0.356934,0.0429688,0.938477,-1.125,-2.625,0.0625,-0.0353394,-0.182068,-0.271484,0.944397,0.0344668,-0.371568,-0.566313
0.36084,0.0410156,0.935059,-1.6875,-3.5625,-1.625,-0.0356445,-0.182556,-0.27179,0.944214,0.0342811,-0.372687,-0.567009
0.358398,0.0390625,0.932617,-1.375,-2.375,-0.4375,-0.0358276,-0.182861,-0.271912,0.944092,0.0341545,-0.373375,-0.567282
0.362793,0.0498047,0.928223,0,-3.0625,-1.3125,-0.0357056,-0.183411,-0.272156,0.943909,0.0348471,-0.374364,-0.568
0.361328,0.0380859,0.931641,-1.875,-3.5,-1.625,-0.0360718,-0.183838,-0.272461,0.943726,0.0345028,-0.375396,-0.568656
0.363281,0.0336914,0.927734,-0.875,-2.5,-1.1875,-0.0362549,-0.184204,-0.272705,0.943604,0.034463,-0.376217,-0.569238
0.365234,0.0419922,0.930176,-0.75,-3.25,-0.875,-0.036377,-0.184692,-0.272888,0.94342,0.0346026,-0.377222,-0.569713
0.366211,0.0444336,0.925293,-0.875,-4,-0.625,-0.036499,-0.185303,-0.27301,0.943298,0.0347889,-0.378493,-0.570119
0.369141,0.043457,0.930664,-0.75,-4.1875,-0.5,-0.0366821,-0.185974,-0.273071,0.943115,0.0348702,-0.379896,-0.570355
0.375488,0.0410156,0.938477,-0.125,-3.5625,-0.8125,-0.0367432,-0.186584,-0.273193,0.942932,0.0351861,-0.381108,-0.570754
0.370605,0.0375977,0.928711,-1,-2.875,-1.8125,-0.0369263,-0.187012,-0.27356,0.942749,0.0352408,-0.382039,-0.571618
0.367188,0.0400391,0.927734,-0.375,-2.25,-2.375,-0.0369263,-0.187317,-0.273926,0.942566,0.0355917,-0.382614,-0.5725
0.372559,0.0410156,0.929199,-1.125,-1.8125,-1.1875,-0.0370483,-0.187622,-0.27417,0.942444,0.0356419,-0.383277,-0.573084
0.374512,0.0410156,0.931641,-1.75,-1.5,-0.6875,-0.0372925,-0.187805,-0.274353,0.942383,0.0353398,-0.383783,-0.573469
0.375488,0.0356445,0.923828,-2.1875,-3.25,-1.125,-0.0377197,-0.188232,-0.274597,0.9422,0.034853,-0.38485,-0.573965
0.378906,0.0366211,0.924805,0,-2.0625,-1.625,-0.0377197,-0.18866,-0.274841,0.942017,0.0352325,-0.385665,-0.574608
0.372559,0.0380859,0.925293,-0.5,-1.875,-1.8125,-0.0377197,-0.188904,-0.275146,0.941895,0.0355186,-0.386136,-0.575356
0.381836,0.0522461,0.936523,-0.625,-3.1875,-0.75,-0.0377197,-0.189453,-0.27533,0.941711,0.0359506,-0.387193,-0.575903
0.380859,0.0473633,0.93457,-2.1875,-1.625,0.125,-0.0380249,-0.189697,-0.275391,0.94165,0.0355142,-0.387852,-0.576003
0.376465,0.0385742,0.91748,-1.125,-2.0625,-2.125,-0.038147,-0.190002,-0.275757,0.941467,0.0356224,-0.3885,-0.576848
0.373047,0.0307617,0.933105,0.5625,-1.5,-1.6875,-0.0380859,-0.190186,-0.276001,0.941345,0.0359709,-0.388806,-0.577452
0.371582,0.0410156,0.924316,-0.8125,-1.9375,-0.625,-0.038147,-0.19043,-0.276123,0.941284,0.0360552,-0.389324,-0.577781
0.372559,0.0415039,0.928223,-2.3125,-3.5625,0.1875,-0.0385742,-0.190796,-0.276184,0.941162,0.0354534,-0.39028,-0.577856
0.375,0.0444336,0.92627,-0.875,-3.8125,-0.25,-0.0387573,-0.191345,-0.276245,0.94104,0.0354615,-0.391462,-0.578085
0.381836,0.0478516,0.936035,-0.5,-2.6875,-1.4375,-0.0386963,-0.191772,-0.276489,0.940857,0.0359698,-0.39224,-0.578754
0.371094,0.0429688,0.929199,-2.25,-2.5,-1,-0.0390015,-0.191956,-0.276794,0.940735,0.0356025,-0.39277,-0.579377
0.37793,0.0532227,0.921875,-0.8125,-3.4375,-2.1875,-0.0389404,-0.192505,-0.277161,0.940491,0.0362449,-0.393782,-0.580353
0.383301,0.0424805,0.925293,-2.3125,-2.4375,-1.4375,-0.0393066,-0.19281,-0.277466,0.940369,0.0358316,-0.394598,-0.581002
0.381836,0.0556641,0.92334,-1.6875,-3.3125,-1.5625,-0.0394287,-0.193298,-0.277832,0.940125,0.036066,-0.395596,-0.581892
0.390625,0.0463867,0.914551,-2.3125,-2.5625,-2.375,-0.0396729,-0.193787,-0.27832,0.93988,0.0361049,-0.396678,-0.583029
0.384277,0.0332031,0.919434,-1.4375,-4.0625,-1,-0.0401001,-0.194336,-0.278503,0.939697,0.0356782,-0.397994,-0.583435
0.395508,0.0239258,0.916016,-0.8125,-4.5,-0.9375,-0.0405273,-0.195129,-0.278564,0.939514,0.0353551,-0.399798,-0.583648
0.392578,0.0322266,0.921387,0,-3.4375,0.0625,-0.0407104,-0.195679,-0.278564,0.939392,0.0353422,-0.400978,-0.583738
0.388184,0.0302734,0.926758,-0.5625,-3.0625,1.375,-0.0409546,-0.196106,-0.27832,0.939331,0.0350185,-0.40195,-0.583211
0.396973,0.0385742,0.935547,-2,-3.75,1.6875,-0.0414429,-0.196594,-0.278076,0.93927,0.0342359,-0.403195,-0.58262
0.387207,0.0371094,0.932617,-0.125,-2.5,1.9375,-0.0415649,-0.196899,-0.277771,0.939331,0.0340447,-0.40389,-0.582004
0.385742,0.0336914,0.928223,-1.3125,-1.3125,1.25,-0.0418091,-0.196899,-0.277588,0.939331,0.0334693,-0.404021,-0.581483
0.371094,0.0405273,0.926758,-1.1875,-1.25,0.9375,-0.0418701,-0.196838,-0.277527,0.939392,0.0332748,-0.403954,-0.581323
0.37793,0.0415039,0.917969,-0.75,-0.75,0.5625,-0.0418701,-0.196777,-0.277527,0.939392,0.0332363,-0.403829,-0.581299
0.381348,0.0439453,0.921387,-1,-2.3125,-1.1875,-0.0418701,-0.197021,-0.277771,0.93927,0.0335062,-0.404298,-0.581913
0.386719,0.0283203,0.907227,-2.1875,-1.9375,-0.75,-0.0422974,-0.197205,-0.277954,0.939148,0.0328418,-0.404895,-0.582204
0.385742,0.0302734,0.913086,-1.125,-2.625,-0.5625,-0.0425415,-0.197571,-0.278076,0.939026,0.03264,-0.40575,-0.58249
0.386719,0.0258789,0.920898,-0.3125,-2.3125,-1.5,-0.0426636,-0.197815,-0.27832,0.938904,0.0326623,-0.406293,-0.58306
0.391602,0.0400391,0.915527,-1.9375,-2.1875,-1.875,-0.0429077,-0.19812,-0.278687,0.938721,0.0325333,-0.40702,-0.58387
0.395996,0.0546875,0.925293,-1.75,-2,-0.9375,-0.0429688,-0.198364,-0.278931,0.938599,0.0326808,-0.407526,-0.584464
0.40332,0.0371094,0.924316,-1.875,-1.625,0.25,-0.0432739,-0.198608,-0.278931,0.938538,0.0322198,-0.408185,-0.58442
0.394531,0.0371094,0.902344,-3,-2.5,-1.375,-0.0437622,-0.198975,-0.279297,0.938354,0.0316333,-0.409186,-0.585168
0.405762,0.0517578,0.918457,-0.9375,-2.375,-1.0625,-0.0437622,-0.199463,-0.27948,0.938171,0.0320411,-0.410123,-0.585706
0.409668,0.0478516,0.918945,-1.3125,-1.0625,-0.875,-0.0437622,-0.199707,-0.279724,0.938049,0.0323146,-0.410593,-0.586323
0.408691,0.034668,0.924316,-2.3125,-1,0.25,-0.0441895,-0.199829,-0.279724,0.937988,0.0315271,-0.411077,-0.586186
0.405273,0.043457,0.913574,-1.9375,-0.5,0.875,-0.0443726,-0.199951,-0.279663,0.937988,0.0312048,-0.411432,-0.586023
0.394043,0.0488281,0.908203,-0.5,-0.8125,-0.25,-0.0443115,-0.199951,-0.279724,0.937988,0.0313559,-0.411401,-0.58619
0.39209,0.0327148,0.915039,-0.8125,-0.6875,-0.625,-0.0443115,-0.199951,-0.279724,0.937988,0.0313559,-0.411401,-0.58619
0.396484,0.0268555,0.914551,-0.375,-2.0625,-0.375,-0.0444336,-0.200256,-0.279785,0.937866,0.03134,-0.412053,-0.586352
0.399414,0.0405273,0.929199,-1.25,-0.0625,0.4375,-0.0444946,-0.200134,-0.279785,0.937927,0.0311317,-0.411867,-0.586312
0.398926,0.0380859,0.904785,-1.5625,0.75,1.0625,-0.0446777,-0.200012,-0.279663,0.937927,0.0306271,-0.411717,-0.585905
0.393066,0.0463867,0.927246,1.4375,-2.375,-0.5625,-0.0442505,-0.200439,-0.279724,0.937866,0.0318036,-0.41231,-0.586347
0.395508,0.0541992,0.915527,-2.0625,-0.75,-1.1875,-0.0443115,-0.2005,-0.280029,0.937744,0.0318634,-0.412448,-0.587014
0.414551,0.0263672,0.927734,-1.875,0.5625,3.375,-0.0447388,-0.200378,-0.279541,0.937927,0.0306825,-0.412492,-0.58574
0.383789,0.0380859,0.912109,-1.9375,0.1875,1,-0.0449219,-0.200134,-0.27948,0.937988,0.0301208,-0.412124,-0.585461
0.359863,0.0429688,0.894531,-0.375,2.4375,-1.625,-0.0444946,-0.199463,-0.279846,0.938049,0.0307186,-0.410552,-0.58625
0.362305,0.0214844,0.879395,-1.375,-2,-5.1875,-0.0446167,-0.199524,-0.280701,0.937744,0.03091,-0.410702,-0.588109
0.374023,0.0078125,0.911133,0.125,-15.0625,-6.5625,-0.0452881,-0.20166,-0.281616,0.936951,0.0313884,-0.415228,-0.590508
0.397461,0.0507812,0.979004,-3.125,-14.8125,-3.1875,-0.0460205,-0.203613,-0.282227,0.93634,0.0314827,-0.419473,-0.592187
0.419922,0.0605469,0.999512,-3,-12.3125,-2.25,-0.0466309,-0.205261,-0.282715,0.935791,0.0315758,-0.423035,-0.593533
0.418457,0.0893555,1.00488,-2.0625,2,-3.625,-0.0459595,-0.204773,-0.283508,0.93573,0.0329938,-0.421669,-0.595447
0.390625,0.101562,0.98584,-7.0625,10.125,-6.0625,-0.0454102,-0.202515,-0.285034,0.93573,0.0333234,-0.416853,-0.598358
0.362793,0.0805664,0.916016,-10,19.0625,-10.8125,-0.0450439,-0.198853,-0.287476,0.935852,0.0327323,-0.409435,-0.602879
0.347656,0.0517578,0.870117,-12.125,16.625,-14.625,-0.0452881,-0.195435,-0.290466,0.935608,0.0313006,-0.402815,-0.608424
0.34375,0.0126953,0.811523,-6.625,3.1875,-17.625,-0.0457764,-0.194702,-0.293579,0.934753,0.0312312,-0.401582,-0.614962
0.369629,-0.012207,0.855957,-3.9375,-3.9375,-14.1875,-0.0465698,-0.195129,-0.295898,0.933899,0.0309782,-0.402829,-0.619977
0.381348,-0.0170898,0.888672,-1.75,-9.25,-15,-0.0473022,-0.196533,-0.298218,0.932861,0.0315341,-0.405947,-0.625334
0.410645,-0.00244141,0.913086,-4.75,-15.75,-18.3125,-0.0487061,-0.198975,-0.301086,0.931335,0.0317485,-0.411466,-0.631986
0.432617,0.0136719,0.915527,-12.3125,-21.6875,-16.4375,-0.0514526,-0.202209,-0.303955,0.929565,0.0298599,-0.4194,-0.638421
0.483398,0.00390625,0.958008,-12.125,-24.0625,-8.5625,-0.0548096,-0.205933,-0.305481,0.92804,0.026486,-0.428727,-0.641753
0.496094,0.0371094,1.02734,-3.9375,-8.9375,-1.8125,-0.0557861,-0.207458,-0.305786,0.927551,0.0257593,-0.432315,-0.642562
0.460938,0.0698242,0.98584,-9,8.9375,-0.8125,-0.0562744,-0.205811,-0.306458,0.927673,0.0239086,-0.429418,-0.643354
0.401367,0.104004,0.884277,-6.8125,20.0625,-4.375,-0.0551758,-0.202576,-0.3078,0.927979,0.0244532,-0.422386,-0.645761
0.356445,0.0893555,0.856445,-0.6875,13.9375,-12.625,-0.0532837,-0.200439,-0.310181,0.927795,0.0278626,-0.416967,-0.651192
0.370117,0.0493164,0.824707,-6.4375,4.375,-11.5,-0.0534058,-0.199646,-0.312317,0.927185,0.0280619,-0.415423,-0.655679
0.385742,0.0581055,0.818359,-7.4375,-7.75,-8.5625,-0.0543823,-0.200928,-0.313965,0.926331,0.0278208,-0.41851,-0.659468
0.413086,0.0546875,0.851562,-2.875,-14.625,-8.625,-0.0551147,-0.203613,-0.315369,0.925232,0.0290132,-0.424145,-0.663259
0.414062,0.0229492,0.881836,-4,-20,-10.375,-0.0565186,-0.206787,-0.316956,0.923889,0.0293399,-0.431159,-0.667387
0.42334,0.00927734,0.898926,-5.0625,-17.625,-9.6875,-0.0581665,-0.209412,-0.318481,0.922668,0.0287606,-0.437289,-0.671119
0.434082,-0.0205078,0.914551,-4.375,-22.4375,-10.0625,-0.0602417,-0.212708,-0.319885,0.921265,0.0277976,-0.445003,-0.674641
0.452148,0.0078125,0.933594,-3.125,-21.0625,-7.5625,-0.0618286,-0.215881,-0.320984,0.920044,0.0275957,-0.452186,-0.677658
0.462402,0.0415039,0.938965,-6.875,-21.375,-1.4375,-0.0639038,-0.218994,-0.321289,0.919067,0.0259531,-0.459616,-0.678644
0.47168,0.0551758,0.930664,-8.6875,-15.5625,0.875,-0.0657959,-0.221191,-0.32135,0.918396,0.0238417,-0.465164,-0.678806
0.42041,0.0742188,0.899414,-8.625,-9.0625,0.375,-0.0669556,-0.222046,-0.321716,0.917969,0.0223459,-0.467598,-0.67947
0.387207,0.0571289,0.836426,-9.0625,-8.875,-5.5625,-0.0681152,-0.222778,-0.322998,0.917297,0.0212541,-0.469802,-0.682232
0.336914,0.0400391,0.759277,-7.75,-16.5625,-10.1875,-0.069458,-0.22467,-0.324829,0.916077,0.0210238,-0.474344,-0.686601
0.296875,0.0380859,0.700195,-9.1875,-36.5625,-15.625,-0.0718384,-0.229553,-0.327332,0.913757,0.0214765,-0.485377,-0.693253
0.314453,0.0390625,0.700684,-22.375,-76.75,-17.25,-0.0784912,-0.240051,-0.330139,0.909485,0.0180253,-0.510338,-0.701069
0.452148,-0.0146484,0.74707,-24.5,-94.5,-20.25,-0.0872803,-0.253784,-0.333008,0.903931,0.0131234,-0.543269,-0.709605
0.528809,-0.0473633,0.797852,-20.0625,-97.6875,-20.9375,-0.0957642,-0.268188,-0.335449,0.89801,0.00946828,-0.577487,-0.71784
0.579102,-0.027832,0.819336,-18.4375,-97.875,-21.1875,-0.10376,-0.282654,-0.33783,0.891724,0.00724025,-0.611632,-0.726537
0.581055,0.0141602,0.793945,-17,-98.0625,-13.625,-0.111328,-0.296997,-0.338989,0.885681,0.00520176,-0.645462,-0.73278
0.583496,0.050293,0.751953,-10.1875,-105.438,-13.5625,-0.118286,-0.312866,-0.339539,0.879089,0.00578693,-0.682069,-0.739195
0.637695,0.0883789,0.758789,-16.5625,-105.75,-16.375,-0.125916,-0.32843,-0.34082,0.871826,0.00573829,-0.71882,-0.747441
0.657715,0.0893555,0.78125,-23.1875,-102.375,-20.875,-0.134033,-0.342957,-0.343079,0.864075,0.00506658,-0.754121,-0.757841
0.700195,0.0761719,0.718262,-26.0625,-99.0625,-34.0625,-0.141052,-0.357239,-0.347778,0.855347,0.0101883,-0.788414,-0.776674
0.722168,0.0537109,0.677246,-25.75,-98.1875,-40.25,-0.147827,-0.371399,-0.353088,0.845886,0.0179038,-0.822302,-0.798653
0.790039,0.0478516,0.674316,-28.9375,-95.8125,-44.3125,-0.154846,-0.38501,-0.35907,0.835999,0.0268223,-0.855557,-0.823636
0.86084,0.0439453,0.692871,-29.4375,-86.0625,-44.8125,-0.161377,-0.397034,-0.365234,0.826355,0.036831,-0.885233,-0.84972
0.872559,0.0332031,0.675781,-28.25,-68.1875,-42.625,-0.166809,-0.406311,-0.371399,0.818054,0.047003,-0.90865,-0.87539
0.855957,0.0380859,0.616699,-24.5,-60.25,-45.375,-0.171021,-0.414734,-0.377747,0.809937,0.0606742,-0.928999,-0.903139
0.825195,0.0527344,0.557129,-27,-57.8125,-41.0625,-0.17572,-0.422668,-0.383728,0.802002,0.0730666,-0.948976,-0.930056
0.853516,0.0473633,0.541504,-24.1875,-57,-40.625,-0.180054,-0.430542,-0.389343,0.794128,0.0870987,-0.968464,-0.957532
0.869629,0.0600586,0.53125,-17.75,-49.8125,-42,-0.182861,-0.437927,-0.394775,0.786743,0.105214,-0.985323,-0.986706
0.863281,0.0732422,0.503906,-11.5625,-48.4375,-43.3125,-0.184631,-0.445496,-0.399963,0.779419,0.127469,-1.00125,-1.01807
0.878418,0.0708008,0.487793,-13.75,-48.875,-38.1875,-0.187134,-0.452759,-0.40448,0.772278,0.147438,-1.01731,-1.04728
0.875977,0.0786133,0.486816,-12.125,-48.5625,-36.75,-0.189453,-0.459839,-0.40863,0.76532,0.168238,-1.03269,-1.07656
0.908203,0.0737305,0.469238,-10.625,-47.5625,-33.8125,-0.191956,-0.466797,-0.41217,0.758545,0.188528,-1.04797,-1.10466
0.934082,0.0839844,0.482422,-8.875,-43.0625,-32.0625,-0.193909,-0.473022,-0.415466,0.75238,0.20906,-1.06114,-1.13206
0.962402,0.0908203,0.499023,-9.5,-34.5625,-29.375,-0.195557,-0.477844,-0.418701,0.74707,0.227257,-1.0711,-1.15691
0.966309,0.0957031,0.499023,-10.3125,-29.625,-24.125,-0.197327,-0.481689,-0.42157,0.742554,0.242021,-1.07953,-1.17825
0.96875,0.0947266,0.508301,-3.5625,-23.3125,-21.0625,-0.197998,-0.484863,-0.423584,0.739136,0.255819,-1.08542,-1.19566
0.954102,0.0947266,0.503418,3.9375,-15,-17.625,-0.197388,-0.487366,-0.424866,0.736938,0.268933,-1.08874,-1.2095
0.929688,0.107422,0.493164,4.75,-7.3125,-13.5,-0.196289,-0.48877,-0.425903,0.735657,0.279024,-1.08937,-1.21933
0.923828,0.126953,0.481934,-0.5625,-3.625,-7.5625,-0.196045,-0.489258,-0.426819,0.734924,0.283545,-1.0897,-1.22501
0.914551,0.129395,0.469727,-1.0625,-0.5625,-5.6875,-0.19574,-0.489319,-0.427612,0.734497,0.286465,-1.08909,-1.22879
0.898926,0.143066,0.456543,1.375,0.8125,-4.5,-0.195007,-0.489441,-0.428162,0.734253,0.290009,-1.08808,-1.2321
0.883301,0.154785,0.455566,1,0.8125,-2.8125,-0.194336,-0.489502,-0.428589,0.734131,0.29286,-1.08713,-1.23465
0.868652,0.155273,0.451172,2.5625,1.875,-2.5625,-0.193359,-0.489502,-0.428894,0.734192,0.295901,-1.08572,-1.23674
0.856934,0.143066,0.438965,2.3125,1.5625,-3.375,-0.192566,-0.489563,-0.42926,0.734131,0.298868,-1.08463,-1.23912
0.847656,0.14502,0.429199,0.125,3.8125,-4.5625,-0.191772,-0.489319,-0.429993,0.734131,0.301594,-1.083,-1.24205
0.848145,0.159668,0.414062,1.75,0.0625,-5.125,-0.190918,-0.489868,-0.430603,0.733643,0.306973,-1.08263,-1.2471
0.856934,0.146484,0.424805,3.6875,-6.3125,-8.0625,-0.190186,-0.491272,-0.431091,0.732544,0.314872,-1.08378,-1.25435
0.877441,0.133301,0.42334,0.1875,-7.8125,-7.875,-0.190247,-0.492615,-0.431702,0.731262,0.321059,-1.08589,-1.26136
0.883789,0.143066,0.433594,-0.25,-8.8125,-6.375,-0.190491,-0.493958,-0.43219,0.730042,0.326566,-1.08838,-1.26782
0.89209,0.152344,0.448242,2.125,-10.875,-5.9375,-0.190491,-0.495605,-0.432434,0.72876,0.333255,-1.09103,-1.27454
0.90625,0.15332,0.457031,0.3125,-7.9375,-4.125,-0.190674,-0.496643,-0.432739,0.727844,0.337454,-1.09294,-1.27933
0.890137,0.187012,0.452637,0.6875,-3.375,-0.375,-0.19043,-0.497131,-0.4328,0.727539,0.33998,-1.09341,-1.2815
0.876953,0.197754,0.445312,3,-4,-2.25,-0.189636,-0.497986,-0.432983,0.727051,0.345421,-1.09372,-1.28591
0.875977,0.172363,0.461426,1.25,-3.0625,-3.1875,-0.189148,-0.498291,-0.43335,0.726685,0.348622,-1.09327,-1.28886
0.866699,0.165039,0.444824,3.1875,1.125,-4.8125,-0.188049,-0.498413,-0.433838,0.726624,0.3527,-1.09185,-1.29216
0.85791,0.180664,0.421875,2.625,2.1875,-6.75,-0.186768,-0.498657,-0.434692,0.726318,0.358518,-1.09025,-1.29755
0.864746,0.202148,0.415039,2.8125,-1.6875,-5.4375,-0.185669,-0.499451,-0.435303,0.725708,0.365417,-1.08984,-1.30373
0.871582,0.177246,0.42041,4.375,-4.5,-5.75,-0.184875,-0.50061,-0.435547,0.724915,0.372212,-1.09047,-1.30947
0.864746,0.172363,0.423828,-0.625,-1.25,-8.625,-0.184204,-0.500977,-0.436646,0.724182,0.377759,-1.08964,-1.31584
0.853027,0.1875,0.402832,3.25,-0.25,-11.75,-0.182617,-0.501831,-0.437927,0.723206,0.387586,-1.08822,-1.32532
0.859863,0.176758,0.413574,-0.4375,-8.75,-15.6875,-0.181946,-0.503418,-0.439636,0.721252,0.399364,-1.089,-1.33873
0.883301,0.162109,0.433594,-2.875,-12.0625,-13.1875,-0.182251,-0.504944,-0.441101,0.719238,0.408361,-1.09109,-1.35039
0.902832,0.175781,0.440918,0.0625,-11.625,-11,-0.182251,-0.506592,-0.442078,0.717468,0.417405,-1.09312,-1.36077
0.894531,0.209473,0.447266,1.0625,-6.8125,-7.9375,-0.181702,-0.507629,-0.442932,0.71637,0.424824,-1.09355,-1.36866
0.879883,0.237793,0.466797,1.75,-1.3125,-9.5,-0.180115,-0.507935,-0.444336,0.715637,0.432708,-1.09093,-1.37651
0.863281,0.249023,0.445801,3.8125,2.5625,-12.3125,-0.177734,-0.50824,-0.445984,0.715027,0.442605,-1.08723,-1.38572
0.846191,0.245605,0.418945,-3.625,1.0625,-14.5,-0.176331,-0.508301,-0.448486,0.713745,0.451576,-1.08383,-1.39689
0.850586,0.221191,0.413086,-5.8125,-0.9375,-18.8125,-0.175232,-0.508545,-0.451416,0.711975,0.46162,-1.08083,-1.41029
0.842773,0.1875,0.405762,-5.75,1.4375,-19.625,-0.174255,-0.508423,-0.454346,0.710449,0.469803,-1.07747,-1.42213
0.832031,0.229004,0.398926,-5.5,-2.375,-21.5,-0.173035,-0.509033,-0.45752,0.708313,0.481901,-1.07469,-1.43784
0.836914,0.249512,0.398926,-1.125,-12,-24.6875,-0.171631,-0.511292,-0.460449,0.705078,0.50061,-1.07388,-1.45912
0.870605,0.232422,0.41748,-6.6875,-18.125,-24.25,-0.171692,-0.513611,-0.463501,0.701355,0.517369,-1.07503,-1.48083
0.89502,0.228516,0.449219,-11.75,-13.8125,-22.4375,-0.172302,-0.514709,-0.466858,0.698181,0.528762,-1.07503,-1.49877
0.88916,0.260742,0.443848,-5.0625,-6.1875,-23.4375,-0.171143,-0.515503,-0.470154,0.695679,0.541585,-1.07203,-1.51554
0.881836,0.280273,0.421875,-1.25,-2.25,-22.75,-0.169128,-0.516418,-0.473083,0.693481,0.555359,-1.06808,-1.53134
0.883789,0.270508,0.412109,-8.1875,-0.75,-21.375,-0.168213,-0.516479,-0.47644,0.691345,0.564481,-1.06424,-1.54502
0.894043,0.289062,0.40918,-11.75,-0.375,-19.25,-0.167786,-0.516296,-0.479858,0.68927,0.571785,-1.06083,-1.5578
0.890137,0.255859,0.388672,-8.3125,2.6875,-18,-0.167175,-0.515991,-0.482605,0.687683,0.57734,-1.05731,-1.56735
0.883789,0.22998,0.375977,-10,7,-16.125,-0.16687,-0.515015,-0.485291,0.686646,0.579281,-1.05363,-1.57382
0.852051,0.257324,0.348145,-8,6.625,-13.75,-0.166321,-0.514404,-0.487549,0.685608,0.582257,-1.05023,-1.58011
0.84375,0.290039,0.358398,-3,-3.9375,-14.1875,-0.165649,-0.515503,-0.48938,0.683655,0.591848,-1.04912,-1.59181
0.867676,0.250488,0.387695,-3.1875,-15.0625,-14.5,-0.166382,-0.517517,-0.490723,0.680969,0.602511,-1.0514,-1.60558
0.892578,0.254395,0.412109,-1,-11.375,-6.6875,-0.167175,-0.51886,-0.491089,0.679504,0.608154,-1.05385,-1.61282
0.883789,0.284668,0.410645,3.4375,-8.3125,-4.125,-0.167114,-0.520203,-0.491028,0.678528,0.614112,-1.05532,-1.61835
0.888672,0.300781,0.421387,4.125,-6.0625,0.4375,-0.167053,-0.52124,-0.490479,0.678162,0.61768,-1.05691,-1.62069
0.895996,0.314941,0.428711,-0.125,-1.875,3.5625,-0.167297,-0.521301,-0.490173,0.678223,0.61701,-1.05749,-1.61979
0.868652,0.330566,0.411621,3.375,2.875,1.75,-0.166382,-0.52124,-0.48999,0.67865,0.61755,-1.05628,-1.61869
0.849609,0.295898,0.401367,1.0625,5.5625,-1,-0.165527,-0.520752,-0.490295,0.679016,0.617141,-1.05421,-1.61767
0.839355,0.269043,0.375,-5.75,9.375,-2.25,-0.165283,-0.519287,-0.491211,0.679504,0.612882,-1.05135,-1.61492
0.813965,0.274902,0.358398,-0.4375,4.9375,-3.375,-0.164612,-0.519043,-0.49176,0.679504,0.613826,-1.04972,-1.61593
0.821289,0.279297,0.375488,5.0625,-8,-5.9375,-0.164185,-0.52063,-0.49176,0.678345,0.621475,-1.05078,-1.62268
0.855957,0.285645,0.421387,3.125,-13.75,-2.875,-0.164612,-0.5224,-0.491516,0.677063,0.628338,-1.05361,-1.62944
0.869629,0.313477,0.438477,0.625,-12.1875,0.5,-0.165344,-0.52356,-0.491333,0.676147,0.632238,-1.05619,-1.6339
0.875,0.333984,0.451172,5.4375,-7.6875,-1.75,-0.164673,-0.524719,-0.49115,0.675537,0.638,-1.05661,-1.63817
0.875977,0.322754,0.453613,1.8125,-1,-1.8125,-0.164001,-0.524597,-0.491516,0.675537,0.639065,-1.05518,-1.63894
0.875488,0.316406,0.429688,-4.0625,5,-3.1875,-0.163452,-0.523621,-0.492615,0.675659,0.637614,-1.0524,-1.63883
0.868164,0.32373,0.393555,-3.5,9,-2.25,-0.162659,-0.522522,-0.49353,0.676025,0.635585,-1.04921,-1.63746
0.842773,0.297852,0.373535,-2.5625,8.125,-3.25,-0.161987,-0.521606,-0.494324,0.67627,0.634011,-1.04643,-1.63647
0.838867,0.274902,0.353516,-6.125,7.125,-3.1875,-0.161987,-0.52063,-0.495239,0.676331,0.631559,-1.04451,-1.63582
0.82373,0.280762,0.342285,-3.875,0.5,-3.8125,-0.162231,-0.520752,-0.495911,0.67572,0.633149,-1.04449,-1.63896
0.836914,0.281738,0.371094,2.625,-8.8125,-4.4375,-0.162354,-0.522278,-0.49585,0.674561,0.639678,-1.04639,-1.64532
0.868652,0.289062,0.415039,2.3125,-11.8125,-1.875,-0.162964,-0.523682,-0.495544,0.673523,0.644616,-1.04902,-1.65036
0.873535,0.314941,0.419922,-0.125,-9.0625,1.25,-0.163696,-0.524597,-0.4953,0.672852,0.647333,-1.05138,-1.65357
0.883789,0.332031,0.436523,3.6875,-5.8125,-0.1875,-0.163452,-0.525391,-0.495056,0.672485,0.650738,-1.05211,-1.65606
0.883789,0.316406,0.454102,1.25,1.9375,0.125,-0.162903,-0.524841,-0.495178,0.672913,0.649189,-1.05051,-1.65401
0.869141,0.323242,0.407715,-3.4375,7,0.6875,-0.162537,-0.523743,-0.495728,0.673462,0.645793,-1.04833,-1.65124
0.859375,0.321289,0.373047,-3.5,7.25,1.625,-0.162292,-0.522827,-0.496094,0.67395,0.642732,-1.04663,-1.64863
0.837891,0.283203,0.376465,-2.3125,6.0625,0.625,-0.162231,-0.521973,-0.496338,0.674438,0.639483,-1.04539,-1.64586
0.834473,0.271973,0.354004,-4.0625,6.3125,1.375,-0.162476,-0.521118,-0.496521,0.674927,0.635723,-1.04471,-1.64293
0.80957,0.295898,0.349121,0.0625,-2,0,-0.162598,-0.521667,-0.496399,0.674561,0.637771,-1.04559,-1.64485
0.834473,0.304199,0.389648,6,-12.1875,-2.6875,-0.162537,-0.523743,-0.495911,0.67334,0.646163,-1.04819,-1.65195
0.868164,0.306641,0.428223,1.0625,-12.5,-0.75,-0.163269,-0.525024,-0.495667,0.672302,0.65059,-1.05077,-1.65678
0.878418,0.319336,0.432617,0.6875,-7.625,-0.25,-0.163635,-0.525757,-0.495605,0.671753,0.653324,-1.05228,-1.65985
0.871094,0.340332,0.437012,3,-0.9375,-2.8125,-0.162659,-0.52594,-0.495972,0.671509,0.656144,-1.05055,-1.66186
0.877441,0.320801,0.42627,-1.5,4.4375,-1.25,-0.162109,-0.525146,-0.496521,0.671875,0.654317,-1.04844,-1.66035
0.870605,0.330566,0.396973,-4.5625,7.25,-0.125,-0.161804,-0.524048,-0.497253,0.672241,0.651226,-1.04612,-1.6583
0.849121,0.32666,0.369141,-0.25,5.125,-0.3125,-0.161194,-0.523804,-0.497498,0.672485,0.651328,-1.04493,-1.65803
0.849121,0.288086,0.372559,-3.75,3.625,-0.75,-0.161377,-0.523193,-0.497925,0.672546,0.649255,-1.04406,-1.65707
0.83252,0.282227,0.36084,-5.125,4.1875,-1.375,-0.161621,-0.522461,-0.498474,0.672607,0.646808,-1.04306,-1.65607
0.818848,0.299316,0.350098,3.1875,-3.1875,-3.5625,-0.161194,-0.52356,-0.498474,0.671936,0.652224,-1.04376,-1.66072
0.849121,0.304199,0.394043,4.8125,-12.6875,-3.8125,-0.161377,-0.525513,-0.498169,0.670593,0.660211,-1.04634,-1.66812
0.880371,0.3125,0.425781,-1.625,-11.0625,0.9375,-0.162537,-0.526367,-0.497986,0.669739,0.662367,-1.04903,-1.67149
0.882812,0.341309,0.430664,1.25,-5.125,0.4375,-0.162476,-0.526917,-0.497925,0.669373,0.664829,-1.04957,-1.67367
0.874023,0.332031,0.442383,4.25,1.5625,-1.375,-0.161438,-0.526794,-0.497986,0.669678,0.665624,-1.04785,-1.67309
0.873535,0.317871,0.412109,-5,5.8125,-0.375,-0.161377,-0.525635,-0.498718,0.670044,0.661907,-1.04587,-1.67077
0.858887,0.335449,0.378418,-5.8125,7.25,0.6875,-0.161255,-0.524536,-0.499451,0.67041,0.658548,-1.04393,-1.66874
0.849121,0.318359,0.362793,0.0625,3.5,0,-0.160889,-0.524414,-0.499512,0.670532,0.658568,-1.04317,-1.66835
0.849121,0.276367,0.375488,-4.75,4.1875,0.3125,-0.161377,-0.52356,-0.499817,0.670837,0.654755,-1.04269,-1.66593
0.825684,0.289551,0.35791,-4.0625,3.9375,0.5,-0.161621,-0.522949,-0.500122,0.671021,0.652337,-1.04213,-1.66451
0.818848,0.308105,0.348633,5.25,-5.9375,-1.8125,-0.161316,-0.524475,-0.499695,0.670227,0.658711,-1.04366,-1.66943
0.854492,0.303223,0.407715,4.4375,-13.6875,-1,-0.161865,-0.526306,-0.499084,0.669128,0.665129,-1.04695,-1.67527
0.875977,0.318359,0.433105,-0.1875,-9.25,1.75,-0.162659,-0.527039,-0.498779,0.66864,0.666899,-1.04927,-1.67754
0.873535,0.340332,0.423828,2,-4.1875,-0.1875,-0.162415,-0.527527,-0.498718,0.668274,0.66935,-1.04928,-1.67943
0.875,0.324219,0.428223,1,2.5625,-1,-0.161804,-0.5271,-0.499023,0.668579,0.668701,-1.04775,-1.67853
0.873047,0.320312,0.397949,-4.5,6.5,0.5,-0.161743,-0.52594,-0.499573,0.669067,0.664603,-1.04592,-1.6755
0.853516,0.339844,0.364746,-1.8125,5.375,1.0625,-0.161316,-0.525513,-0.499817,0.669312,0.663666,-1.04459,-1.67445
0.849121,0.308594,0.36377,-0.5,0.25,0.5,-0.161316,-0.525574,-0.499817,0.669312,0.66392,-1.04476,-1.6747
0.854004,0.271973,0.370605,-3.75,2.375,0.0625,-0.161926,-0.525024,-0.5,0.669434,0.661083,-1.04488,-1.67316
0.827148,0.296387,0.345215,0,1.375,0.6875,-0.161926,-0.525146,-0.499817,0.669495,0.661256,-1.04522,-1.67299
0.83252,0.311523,0.363281,6.4375,-8.8125,-1.1875,-0.161743,-0.526978,-0.499146,0.66864,0.66844,-1.04751,-1.67843
0.865234,0.30957,0.422363,3.875,-12.25,0.5625,-0.162292,-0.528381,-0.498474,0.667847,0.672915,-1.05026,-1.68226
0.87793,0.321777,0.421875,-1.0625,-6.75,1.1875,-0.162964,-0.528809,-0.498413,0.667358,0.674006,-1.05168,-1.68414
0.873047,0.340332,0.429688,3.1875,-0.8125,-0.3125,-0.162292,-0.528992,-0.498413,0.66748,0.675578,-1.05108,-1.68474
0.87207,0.30957,0.427734,0.9375,3.4375,-1.75,-0.161621,-0.528381,-0.498718,0.667847,0.674183,-1.04907,-1.683
0.865234,0.313965,0.401367,-5.625,6.375,0.875,-0.161743,-0.527039,-0.49939,0.668396,0.669223,-1.04732,-1.67964
0.85498,0.334473,0.364746,-2.8125,3.5625,1.6875,-0.161743,-0.526672,-0.499573,0.668518,0.667934,-1.04672,-1.67873
0.853027,0.30127,0.376953,-0.9375,0.6875,0.5,-0.161743,-0.526672,-0.499573,0.668518,0.667934,-1.04672,-1.67873
0.845215,0.282715,0.368164,-5.75,3.4375,1.5,-0.162476,-0.525818,-0.499878,0.668823,0.663768,-1.04674,-1.67632
0.817383,0.324707,0.341309,-1.125,0.625,0.3125,-0.162354,-0.526001,-0.499939,0.668579,0.664915,-1.04651,-1.67735
0.83252,0.320312,0.384277,4.875,-9.6875,-2.75,-0.16217,-0.527649,-0.499695,0.667542,0.672169,-1.0482,-1.68366
0.872559,0.313965,0.425781,-0.875,-10.5625,-1,-0.162964,-0.528564,-0.499695,0.666626,0.675479,-1.0503,-1.68798
0.879395,0.320801,0.419434,-2.375,-3.125,-0.9375,-0.16333,-0.528503,-0.500061,0.666321,0.675519,-1.05047,-1.68923
0.868652,0.332031,0.42041,1.6875,1.8125,-1,-0.162598,-0.528259,-0.500305,0.666504,0.675729,-1.04889,-1.68885
0.869629,0.308105,0.414062,-3.0625,4.3125,-1.0625,-0.162476,-0.527344,-0.500854,0.66687,0.672755,-1.04733,-1.68684
0.864258,0.318848,0.376465,-7.125,5.8125,0.875,-0.162842,-0.526184,-0.501587,0.667175,0.668485,-1.04609,-1.68461
0.855957,0.337891,0.353027,-2.3125,2,2.375,-0.162964,-0.526123,-0.501526,0.667175,0.667973,-1.04614,-1.68416
0.853516,0.303711,0.375488,-1.625,0.6875,0.75,-0.163208,-0.526001,-0.501587,0.667175,0.66725,-1.04634,-1.68392
0.843262,0.297852,0.364746,-4,3.4375,1.8125,-0.163635,-0.52533,-0.501709,0.66748,0.663945,-1.04613,-1.68155
0.818359,0.32959,0.354492,2,-0.5,0.3125,-0.163208,-0.525879,-0.501587,0.667297,0.666678,-1.04627,-1.68338
0.84082,0.317383,0.381836,4.9375,-9.6875,-2.3125,-0.163086,-0.527527,-0.501221,0.66626,0.673662,-1.048,-1.68926
0.876465,0.30957,0.428223,-0.75,-8.125,-0.3125,-0.163818,-0.528076,-0.50116,0.665649,0.67526,-1.0496,-1.69172
0.866699,0.320801,0.42334,0,-0.9375,-1.0625,-0.163635,-0.527954,-0.501465,0.665649,0.675481,-1.04911,-1.69227
0.865234,0.325195,0.402344,1.125,2.125,-1.5625,-0.163025,-0.527771,-0.501709,0.66571,0.675852,-1.04768,-1.69221
0.864258,0.303711,0.407227,-2.5,3.4375,-1.1875,-0.162903,-0.527039,-0.502197,0.666016,0.673578,-1.04645,-1.69077
0.872559,0.316895,0.370605,-7,5.8125,1.5,-0.163391,-0.52594,-0.502747,0.666321,0.669108,-1.04551,-1.68817
0.851562,0.333984,0.355469,-0.375,2.5,1.5,-0.163208,-0.526001,-0.502625,0.666382,0.669365,-1.04535,-1.68792
0.854004,0.301758,0.365234,0.0625,-0.6875,0.125,-0.163208,-0.526001,-0.502625,0.666382,0.669365,-1.04535,-1.68792
0.845215,0.288086,0.371094,-3,0.1875,1.9375,-0.163879,-0.525757,-0.502563,0.666504,0.667324,-1.04626,-1.68679
0.828613,0.320312,0.365723,4.0625,-3.25,0.875,-0.163574,-0.526611,-0.502075,0.66626,0.670608,-1.04709,-1.68861
0.84375,0.32666,0.407227,5.6875,-8.75,0.375,-0.163452,-0.527954,-0.501465,0.665649,0.675713,-1.04874,-1.69222
0.872559,0.325195,0.444824,-1.5,-6.0625,0.5,-0.16394,-0.528076,-0.501587,0.665344,0.67597,-1.04948,-1.6934
0.868652,0.326172,0.417969,-1.25,1.625,-0.3125,-0.163696,-0.527588,-0.501953,0.665527,0.67473,-1.04832,-1.69254
0.854004,0.327148,0.399414,2.25,5.3125,-2,-0.162598,-0.527222,-0.502258,0.665894,0.674895,-1.04611,-1.69173
0.847656,0.308105,0.389648,-4.6875,4.75,-1.1875,-0.162598,-0.526245,-0.502991,0.666077,0.671917,-1.04437,-1.69022
0.856445,0.321289,0.35791,-7.3125,3.6875,0.1875,-0.163086,-0.525513,-0.503662,0.666016,0.669375,-1.04372,-1.68971
0.852539,0.321777,0.355469,-0.5625,-0.75,-0.75,-0.163086,-0.525574,-0.503662,0.665955,0.66966,-1.04375,-1.68998
0.86377,0.304199,0.365723,-0.375,-3.125,-1.375,-0.163452,-0.526184,-0.503601,0.665466,0.671891,-1.04504,-1.69255
0.859863,0.310547,0.375977,-0.8125,-2.75,0.9375,-0.163879,-0.526489,-0.503479,0.665222,0.672553,-1.04612,-1.69357
0.847168,0.334473,0.384277,4.0625,-5.9375,0.4375,-0.163696,-0.527649,-0.502991,0.664673,0.677134,-1.04735,-1.69682
0.869629,0.323242,0.427734,3.25,-6.875,1.375,-0.163879,-0.528381,-0.502502,0.664429,0.679318,-1.04884,-1.69827
0.874023,0.321777,0.438477,-1.9375,0.3125,2.3125,-0.164062,-0.52771,-0.502625,0.664795,0.676266,-1.04827,-1.6958
0.853516,0.333984,0.40918,-1.625,7.375,1.1875,-0.163452,-0.526611,-0.503052,0.665527,0.672746,-1.04594,-1.69234
0.833984,0.307617,0.382812,-2.625,7.9375,-1.1875,-0.162842,-0.525452,-0.503723,0.666077,0.6695,-1.04323,-1.6896
0.838379,0.302246,0.364258,-5.4375,5.375,-1.1875,-0.162964,-0.524597,-0.504395,0.666199,0.666833,-1.04191,-1.68846
0.838379,0.3125,0.331543,-3.5625,2.25,-0.3125,-0.163269,-0.524536,-0.504639,0.666016,0.666683,-1.04213,-1.68922
0.843262,0.324219,0.344238,1,-4.8125,-1.3125,-0.163391,-0.525696,-0.504517,0.665161,0.671584,-1.04358,-1.6939
0.865723,0.313477,0.373535,0.6875,-8.375,-1.8125,-0.163879,-0.526917,-0.504333,0.664185,0.676278,-1.04563,-1.69878
0.872559,0.308105,0.389648,3.75,-8.1875,-1.5625,-0.164124,-0.528198,-0.503906,0.663452,0.68105,-1.0477,-1.70294
0.881836,0.327148,0.426758,7.125,-7.875,-0.5,-0.163818,-0.52948,-0.503235,0.663025,0.685977,-1.04914,-1.70602
0.873535,0.32666,0.453613,2.9375,-5.125,1.6875,-0.163818,-0.529724,-0.502869,0.663086,0.686383,-1.04968,-1.70572
0.873535,0.334961,0.440918,-0.5625,2.8125,4,-0.163696,-0.52887,-0.502869,0.663879,0.682498,-1.04884,-1.7018
0.850098,0.322754,0.414062,-3.5625,10.4375,3.125,-0.163269,-0.527039,-0.503296,0.6651,0.675387,-1.04597,-1.69511
0.825684,0.307617,0.371094,-4.375,12.4375,0.6875,-0.162659,-0.525269,-0.503967,0.666077,0.669371,-1.04254,-1.68968
0.819336,0.29834,0.340332,-5.875,9.3125,-0.375,-0.162598,-0.524048,-0.5047,0.666565,0.665342,-1.04068,-1.6871
0.821289,0.318359,0.321777,-3.625,1.5,-0.625,-0.162781,-0.52417,-0.505005,0.666138,0.666326,-1.04068,-1.68887
0.833496,0.312012,0.336426,0.875,-6.6875,-3.125,-0.163025,-0.525513,-0.504944,0.665039,0.672043,-1.04239,-1.69462
0.865234,0.313965,0.35498,0.75,-10.3125,-3.8125,-0.163574,-0.527222,-0.504883,0.663635,0.679119,-1.04503,-1.70214
0.878906,0.329102,0.381836,6.0625,-12.9375,-4.75,-0.163574,-0.52948,-0.504517,0.662109,0.688842,-1.04755,-1.71086
0.904297,0.318359,0.434082,8,-13.4375,-3.625,-0.163513,-0.531494,-0.503845,0.661011,0.696979,-1.04999,-1.7174
0.916016,0.314453,0.469238,1.625,-5.875,2.4375,-0.164062,-0.531555,-0.503418,0.661194,0.695791,-1.05137,-1.71623
0.890625,0.337891,0.458008,1.125,6.75,6,-0.163574,-0.530151,-0.503113,0.662659,0.689122,-1.04957,-1.7085
0.845215,0.32959,0.421387,-1.9375,14.375,5.6875,-0.162781,-0.527893,-0.503296,0.664551,0.679869,-1.0461,-1.69876
0.821777,0.311035,0.373535,-8.8125,15.6875,2.875,-0.162537,-0.525269,-0.504272,0.665894,0.670117,-1.04211,-1.69081
0.810547,0.300293,0.332031,-8.5,13.125,1.125,-0.162537,-0.523376,-0.505127,0.666687,0.663287,-1.03932,-1.68581
0.794922,0.315918,0.307129,-3.9375,4.1875,-0.5625,-0.162537,-0.523254,-0.505554,0.666504,0.663572,-1.0389,-1.6869
0.812988,0.301758,0.309082,-2.125,-6.3125,-3.5625,-0.163086,-0.524475,-0.505737,0.665222,0.668857,-1.04067,-1.69312
0.845215,0.319824,0.351074,0.5625,-13.25,-4.6875,-0.163757,-0.52655,-0.505798,0.663391,0.677692,-1.04371,-1.70274
0.876465,0.341309,0.389648,7.6875,-19.4375,-7,-0.163757,-0.529785,-0.505432,0.661133,0.691908,-1.04725,-1.71582
0.919922,0.332031,0.440918,9.0625,-20.625,-5.625,-0.164001,-0.532715,-0.504761,0.659241,0.704054,-1.05103,-1.72669
0.944336,0.315918,0.491699,2.9375,-7,0.5625,-0.164368,-0.532898,-0.504395,0.659302,0.703788,-1.05215,-1.72627
0.904297,0.333496,0.462402,1.125,9.25,5.125,-0.163696,-0.531189,-0.504211,0.66095,0.696081,-1.04966,-1.71748
0.858398,0.328125,0.42041,-2.8125,17.125,6.75,-0.162964,-0.528503,-0.504333,0.663147,0.684623,-1.0458,-1.70556
0.824707,0.29834,0.377441,-8.25,19.1875,4.9375,-0.162659,-0.525391,-0.505066,0.665161,0.672134,-1.04166,-1.69443
0.805664,0.304199,0.317383,-8.375,16.75,3.25,-0.162537,-0.523193,-0.505737,0.666382,0.66368,-1.0386,-1.68735
0.787598,0.316406,0.297852,-4.0625,6.1875,1.5625,-0.162476,-0.522827,-0.505981,0.666565,0.662559,-1.03805,-1.68666
0.796875,0.31543,0.303223,-1.125,-6.5625,-2.75,-0.162903,-0.524231,-0.506104,0.665222,0.668673,-1.0399,-1.69339
0.832031,0.329102,0.336914,1.5625,-17.1875,-5.9375,-0.163574,-0.526978,-0.506104,0.662903,0.680455,-1.04364,-1.70574
0.876465,0.337891,0.397949,9.5,-23.1875,-8,-0.163635,-0.530701,-0.505615,0.660278,0.696692,-1.04773,-1.72063
0.916992,0.329102,0.459961,8.4375,-21.3125,-6.0625,-0.16394,-0.533447,-0.505066,0.658386,0.708226,-1.05122,-1.73122
0.933594,0.33252,0.489746,2.4375,-8.1875,-0.25,-0.164246,-0.533752,-0.504883,0.658203,0.708993,-1.05214,-1.73206
0.915039,0.34375,0.46875,0.875,7.4375,4.0625,-0.163635,-0.532288,-0.504822,0.659607,0.702553,-1.04998,-1.72482
0.870605,0.324707,0.42041,-4.9375,17.5625,4.75,-0.162964,-0.529419,-0.505371,0.661682,0.69093,-1.04581,-1.71364
0.838867,0.304199,0.365723,-10.8125,20.875,4.1875,-0.162842,-0.526062,-0.506409,0.663574,0.677684,-1.04136,-1.70259
0.811523,0.303711,0.30957,-8.4375,18.375,3.25,-0.162598,-0.523682,-0.50708,0.664978,0.668497,-1.03797,-1.69463
0.79541,0.308105,0.286133,-5.25,7.4375,1.6875,-0.162781,-0.523132,-0.507385,0.665161,0.666405,-1.03747,-1.69345
0.792969,0.307617,0.288086,-1.4375,-4.4375,-1.4375,-0.163269,-0.524353,-0.507324,0.664124,0.671254,-1.03946,-1.69871
0.825684,0.323242,0.333496,3.25,-16.5,-4.0625,-0.16394,-0.5271,-0.506958,0.662048,0.682342,-1.04346,-1.7097
0.857422,0.345703,0.388672,10.8125,-24.0625,-6.375,-0.16394,-0.531067,-0.506165,0.659546,0.699163,-1.04812,-1.72451
0.911621,0.338867,0.456055,9.8125,-23.875,-5.0625,-0.164246,-0.534241,-0.505371,0.657471,0.712285,-1.05218,-1.73618
0.934082,0.336426,0.49707,3.3125,-10.375,-0.0625,-0.164612,-0.53479,-0.505066,0.657104,0.713953,-1.05339,-1.73774
0.908203,0.350098,0.476562,2,7.0625,3.3125,-0.163757,-0.533386,-0.505066,0.658508,0.708112,-1.05095,-1.73086
0.86084,0.328613,0.429688,-3.375,18.5625,3.375,-0.162598,-0.530457,-0.505737,0.660645,0.696897,-1.04585,-1.71959
0.838379,0.308594,0.370117,-10,20.1875,2.75,-0.162292,-0.527283,-0.506897,0.662415,0.684837,-1.04136,-1.70967
0.818359,0.295898,0.32373,-8.75,17.375,1.375,-0.162048,-0.524902,-0.507812,0.663635,0.676083,-1.03776,-1.70258
0.796875,0.311035,0.291504,-4.8125,6,0.3125,-0.16217,-0.524475,-0.508118,0.663635,0.674654,-1.03708,-1.70194
0.811523,0.318848,0.303711,-4.375,-7,-2.0625,-0.163147,-0.525696,-0.508423,0.662292,0.679683,-1.03964,-1.70878
0.842773,0.335938,0.34082,1.125,-15.8125,-3.375,-0.164001,-0.528137,-0.508179,0.660278,0.689516,-1.0434,-1.71904
0.864746,0.351074,0.402344,9,-20.875,-6.125,-0.16394,-0.531433,-0.50769,0.65802,0.703977,-1.04685,-1.73205
0.89502,0.337402,0.461426,5,-18.375,-3.8125,-0.164429,-0.533447,-0.507385,0.656494,0.712388,-1.04969,-1.74034
0.918945,0.341797,0.48584,0.5625,-6.375,0.0625,-0.164673,-0.533447,-0.507446,0.656372,0.712272,-1.04996,-1.74069
0.898926,0.336914,0.457031,0.1875,8.3125,1.5,-0.163879,-0.53186,-0.507751,0.657593,0.706197,-1.04698,-1.73423
0.868652,0.320801,0.411133,-6.625,17.5625,3,-0.16333,-0.528992,-0.508606,0.659424,0.695049,-1.04277,-1.72426
0.838867,0.302246,0.355469,-9.8125,20.25,1.75,-0.163025,-0.52594,-0.509705,0.661072,0.683523,-1.03833,-1.71474
0.819336,0.296387,0.302246,-7.8125,16.4375,1.6875,-0.162842,-0.523926,-0.510376,0.662231,0.675882,-1.03555,-1.70837
0.803711,0.30127,0.289062,-3.5625,5.625,1.4375,-0.163086,-0.523682,-0.510376,0.662354,0.674513,-1.03565,-1.70739
0.806152,0.321777,0.300781,-1.0625,-7.9375,-0.75,-0.163879,-0.525269,-0.510193,0.661072,0.680474,-1.03861,-1.71394
0.835938,0.343262,0.347656,5.5625,-20.5,-3.375,-0.164551,-0.528564,-0.509521,0.658752,0.693613,-1.0433,-1.72633
0.874023,0.334961,0.427734,10.125,-23.375,-5.1875,-0.164795,-0.531921,-0.508667,0.656616,0.707382,-1.04752,-1.73842
0.907227,0.350586,0.469238,6.3125,-16.625,-1.9375,-0.165039,-0.533813,-0.508179,0.655457,0.7151,-1.0502,-1.74535
0.908203,0.355469,0.483887,4.3125,-3,0.75,-0.16449,-0.533752,-0.507996,0.655762,0.715001,-1.04945,-1.74412
0.887207,0.335449,0.464844,-0.3125,10.4375,2,-0.163574,-0.531799,-0.508423,0.657288,0.707521,-1.04599,-1.73636
0.85791,0.313477,0.390625,-8.6875,18.375,1.625,-0.163147,-0.528809,-0.509521,0.658936,0.696205,-1.04149,-1.72685
0.834961,0.299805,0.342773,-8,18.125,0.75,-0.162781,-0.526245,-0.510498,0.660278,0.686758,-1.0375,-1.71903
0.827637,0.299805,0.307617,-6.625,12.125,1.375,-0.162842,-0.524841,-0.510925,0.661072,0.681129,-1.03589,-1.71448
0.810059,0.304199,0.291992,-5.875,1.25,1.8125,-0.163757,-0.524841,-0.510986,0.660767,0.680271,-1.03714,-1.71506
0.819824,0.321777,0.3125,0.375,-7.8125,-0.0625,-0.164429,-0.526428,-0.51062,0.659668,0.686055,-1.0401,-1.72093
0.836914,0.349121,0.355957,6.3125,-17.0625,-3.5,-0.164612,-0.529358,-0.51001,0.657715,0.698222,-1.04364,-1.73181
0.871582,0.34668,0.402832,8.1875,-21.375,-5.4375,-0.164856,-0.532532,-0.509399,0.655518,0.711683,-1.04739,-1.74406
0.908691,0.343262,0.470703,5.875,-16.6875,-2.4375,-0.165222,-0.534363,-0.508972,0.654358,0.719127,-1.05019,-1.75102
0.911621,0.349121,0.479004,3.5625,-3.1875,1.5,-0.164978,-0.534241,-0.508728,0.654724,0.718286,-1.04999,-1.7494
0.881348,0.349121,0.454102,0.5,10.25,3.1875,-0.16394,-0.532471,-0.508911,0.656189,0.71133,-1.04648,-1.74149
0.854492,0.322754,0.402344,-7.5,18,3.875,-0.163452,-0.52948,-0.509766,0.658142,0.699483,-1.04235,-1.73093
0.831055,0.297852,0.344727,-8.25,19.4375,1.4375,-0.163025,-0.526672,-0.510742,0.659729,0.688917,-1.03812,-1.72194
0.810059,0.294434,0.300293,-7.5,15.0625,1.75,-0.163025,-0.524841,-0.511353,0.660706,0.681773,-1.03577,-1.71618
0.800781,0.308594,0.286621,-5,3.125,0.75,-0.163513,-0.52478,-0.511536,0.660461,0.681345,-1.03621,-1.7168
0.816895,0.326172,0.302246,0.1875,-9.6875,-2.125,-0.164185,-0.526672,-0.511292,0.658997,0.688786,-1.03929,-1.7245
0.851562,0.34375,0.365234,8.3125,-21.6875,-4.6875,-0.164551,-0.530273,-0.510498,0.656616,0.703535,-1.04391,-1.7378
0.88916,0.336914,0.433594,9.375,-22.1875,-4.125,-0.164917,-0.533325,-0.509644,0.654724,0.715845,-1.04807,-1.74866
0.916992,0.35498,0.473633,2.4375,-15.8125,0.25,-0.165771,-0.534668,-0.509277,0.653687,0.720687,-1.05087,-1.7539
0.905762,0.351074,0.481445,4.625,0.625,2.8125,-0.1651,-0.534119,-0.508911,0.654541,0.718006,-1.04965,-1.74963
0.879883,0.341309,0.458984,-0.5,13.125,4.0625,-0.164062,-0.53186,-0.509216,0.656433,0.708931,-1.04584,-1.73992
0.842773,0.321777,0.39502,-10.625,21.9375,3.6875,-0.163574,-0.528198,-0.510498,0.658569,0.694872,-1.04062,-1.72802
0.818848,0.298828,0.319336,-9.125,18.9375,0.4375,-0.163208,-0.525635,-0.511536,0.659851,0.685571,-1.03655,-1.72046
0.808105,0.288086,0.291016,-6.625,13.25,0.3125,-0.163208,-0.524231,-0.512146,0.660583,0.680349,-1.03482,-1.71658
0.799316,0.304688,0.288086,-4.8125,0.75,-0.0625,-0.163818,-0.524414,-0.512329,0.660095,0.680908,-1.03563,-1.71833
0.826172,0.342285,0.301758,1.375,-11.1875,-2.0625,-0.164368,-0.526733,-0.511963,0.658386,0.690208,-1.03898,-1.72741
0.854492,0.350586,0.370605,9.5625,-23.75,-5.25,-0.164734,-0.53064,-0.511108,0.655823,0.706271,-1.04397,-1.74188
0.902832,0.345703,0.44873,9.3125,-23.6875,-5.1875,-0.1651,-0.533813,-0.510376,0.653748,0.719432,-1.04812,-1.7538
0.92041,0.34082,0.478516,1.875,-13.4375,-0.625,-0.165833,-0.534729,-0.510132,0.652954,0.722634,-1.05015,-1.75749
0.905762,0.356445,0.487305,5.0625,3.0625,2.3125,-0.164856,-0.533936,-0.509949,0.653992,0.719424,-1.04818,-1.75263
0.875488,0.337402,0.456543,-3.25,14.8125,3.8125,-0.164001,-0.53125,-0.510498,0.655945,0.708679,-1.04393,-1.74201
0.843262,0.314453,0.383301,-11.8125,21.8125,3.8125,-0.163757,-0.527588,-0.51178,0.65802,0.694408,-1.03909,-1.73027
0.82666,0.294922,0.322754,-8.125,21.25,1.4375,-0.163208,-0.52478,-0.512695,0.659607,0.683986,-1.03458,-1.72112
0.802734,0.292969,0.280762,-7.6875,12.875,1.5625,-0.163452,-0.523376,-0.513184,0.660339,0.678297,-1.03326,-1.71691
0.794922,0.303711,0.27832,-4.875,-0.25,1.125,-0.164307,-0.523804,-0.513184,0.65979,0.679308,-1.03496,-1.7191
0.814453,0.338379,0.296875,3.875,-12.6875,-1.3125,-0.164795,-0.526428,-0.512451,0.658142,0.689327,-1.03886,-1.72809
0.844727,0.367188,0.374512,12.25,-24.875,-5.1875,-0.164673,-0.530701,-0.511414,0.655518,0.707244,-1.04356,-1.74331
0.898438,0.356934,0.463379,9.625,-25.875,-5.5,-0.165039,-0.534058,-0.510803,0.653198,0.721522,-1.04774,-1.75655
0.918457,0.353516,0.490234,3,-13.625,-1.8125,-0.165466,-0.535095,-0.510681,0.652344,0.725824,-1.04942,-1.76111
0.918945,0.358398,0.490723,3.5,-0.125,0.8125,-0.164795,-0.534546,-0.510681,0.652954,0.723844,-1.04791,-1.75823
0.881348,0.327637,0.460449,-1.5,17.75,4.0625,-0.163635,-0.531616,-0.511108,0.655273,0.711972,-1.04312,-1.74584
0.841797,0.312012,0.365234,-13.5625,23.6875,3.9375,-0.163513,-0.52771,-0.512512,0.65741,0.696678,-1.03811,-1.73351
0.822266,0.291992,0.312988,-9.75,20.3125,1.75,-0.16333,-0.524963,-0.513428,0.658936,0.6861,-1.03439,-1.72475
0.803711,0.291992,0.294434,-5.9375,11.9375,1.8125,-0.163391,-0.523682,-0.513733,0.659668,0.680837,-1.0329,-1.72032
0.799316,0.304199,0.275879,-7.25,-1.4375,1.1875,-0.164673,-0.523987,-0.513916,0.658997,0.681194,-1.03501,-1.72284
0.81543,0.350098,0.306152,3.125,-13.875,-1.1875,-0.165222,-0.526672,-0.513306,0.657166,0.691711,-1.03889,-1.73263
0.844727,0.353027,0.39502,11.375,-24.4375,-6.4375,-0.165161,-0.530579,-0.512512,0.654663,0.708356,-1.04315,-1.74718
0.889648,0.34375,0.466309,9.0625,-23.0625,-5.875,-0.165405,-0.533508,-0.511963,0.652649,0.720863,-1.04665,-1.75863
0.906738,0.35791,0.482422,2.125,-11.9375,-1.6875,-0.16571,-0.534302,-0.512024,0.651855,0.724485,-1.04769,-1.7627
0.912598,0.36377,0.481445,2.0625,-2.5,0.125,-0.165344,-0.534058,-0.512146,0.652039,0.723918,-1.04677,-1.76186
0.890625,0.322266,0.465332,-2.6875,16,3.5625,-0.16449,-0.531189,-0.512695,0.654236,0.712229,-1.04259,-1.75033
0.84375,0.3125,0.381836,-12,22.875,3.4375,-0.164185,-0.527344,-0.513977,0.656311,0.697235,-1.03719,-1.73778
0.812988,0.307129,0.311523,-8,21.25,1.375,-0.163513,-0.524719,-0.514954,0.657898,0.687801,-1.03298,-1.72956
0.806641,0.289062,0.288574,-7.8125,9.75,1.1875,-0.164001,-0.52356,-0.515381,0.658325,0.682885,-1.03213,-1.72631
0.803223,0.316406,0.280273,-5.4375,-0.9375,1.1875,-0.164978,-0.524048,-0.515442,0.657654,0.684186,-1.03401,-1.72907
0.816406,0.347656,0.307129,3.75,-13.5625,-1.8125,-0.165405,-0.526733,-0.514832,0.655884,0.694833,-1.03775,-1.73883
0.850098,0.361816,0.381348,9.3125,-24.625,-5.75,-0.16571,-0.53064,-0.514099,0.653198,0.711271,-1.04238,-1.7538
0.894531,0.337891,0.455078,9,-22.5,-5.25,-0.166016,-0.533508,-0.513489,0.651306,0.723311,-1.04605,-1.76478
0.912598,0.358887,0.471191,3.25,-13.375,-1.5625,-0.166382,-0.534729,-0.513306,0.65033,0.728448,-1.04777,-1.76995
0.901855,0.35791,0.479004,6.8125,1.1875,0.9375,-0.165283,-0.534424,-0.513,0.651123,0.727398,-1.04621,-1.76678
0.885254,0.335938,0.459961,-5.5625,12.625,3.0625,-0.164856,-0.531738,-0.513794,0.652832,0.716631,-1.04252,-1.75721
0.847656,0.313965,0.38916,-11.125,22.6875,2.75,-0.164429,-0.527954,-0.515137,0.654907,0.702066,-1.03709,-1.74503
0.816895,0.303711,0.312012,-7.0625,20.625,0.5,-0.163696,-0.525452,-0.515991,0.656372,0.693027,-1.03276,-1.73685
0.805176,0.302734,0.29248,-9.5,11.125,1.5,-0.164124,-0.523987,-0.516724,0.656921,0.687327,-1.03146,-1.73335
0.810547,0.324219,0.283203,-6.125,-1.9375,0.625,-0.165161,-0.524536,-0.516846,0.656067,0.68902,-1.03329,-1.73669
0.827637,0.354004,0.314453,3.3125,-14.5625,-2.6875,-0.16571,-0.527283,-0.516357,0.654114,0.700111,-1.03711,-1.74728
0.857422,0.344238,0.382812,7.5625,-23.25,-5.5,-0.16626,-0.530823,-0.515747,0.651672,0.714839,-1.04185,-1.7612
0.901367,0.330078,0.439453,5.9375,-20.6875,-4.375,-0.167053,-0.533325,-0.515198,0.649841,0.724863,-1.04572,-1.77102
0.911133,0.354004,0.470703,5.875,-9.625,-0.4375,-0.166931,-0.534241,-0.514709,0.649475,0.728396,-1.04674,-1.77335
0.898438,0.358398,0.470215,2.875,0.4375,2.5625,-0.166504,-0.533691,-0.514526,0.650146,0.72582,-1.04574,-1.76989
0.880859,0.332031,0.450684,-4.875,13.4375,4.75,-0.166138,-0.531006,-0.515076,0.652039,0.71451,-1.04241,-1.75942
0.839844,0.325195,0.375977,-8.8125,21.625,4.875,-0.165588,-0.527649,-0.51593,0.654175,0.701088,-1.03765,-1.74723
0.808105,0.308594,0.323242,-8.1875,19.1875,2.25,-0.1651,-0.525085,-0.516846,0.655701,0.691562,-1.03382,-1.73907
0.800781,0.31543,0.297852,-8.0625,10.875,3,-0.165466,-0.523743,-0.517334,0.656311,0.686017,-1.03269,-1.73516
0.803223,0.341309,0.291992,-4.4375,-2.0625,0.1875,-0.166016,-0.524414,-0.517517,0.655457,0.688891,-1.03389,-1.73907
0.823242,0.362305,0.325684,3.375,-14.8125,-3.625,-0.166382,-0.527161,-0.517212,0.653442,0.70053,-1.03733,-1.75028
0.871094,0.339355,0.39209,8.125,-23.125,-8.125,-0.166687,-0.530701,-0.516724,0.650818,0.715826,-1.04126,-1.76462
0.911133,0.320801,0.444336,6.0625,-16.5625,-4.875,-0.167175,-0.532715,-0.516296,0.649414,0.724037,-1.04421,-1.77249
0.90625,0.353027,0.456543,4.9375,-6.9375,0.25,-0.167053,-0.533386,-0.515869,0.649231,0.726501,-1.04502,-1.77389
0.898926,0.338867,0.460449,3.375,1.375,2.75,-0.166687,-0.532837,-0.515503,0.650085,0.723489,-1.04442,-1.76974
0.882812,0.316895,0.442383,-6.3125,13.8125,6.375,-0.166748,-0.529968,-0.515869,0.6521,0.710617,-1.04162,-1.75802
0.834473,0.332031,0.366699,-8.0625,20.1875,4.75,-0.166199,-0.526917,-0.516724,0.654053,0.698625,-1.03727,-1.74724
0.807129,0.304199,0.328125,-5.75,16.125,2.1875,-0.16571,-0.524902,-0.517273,0.655396,0.690924,-1.03424,-1.74014
0.800781,0.304688,0.313965,-7.125,7.875,1.75,-0.166138,-0.523804,-0.5177,0.655762,0.686345,-1.03331,-1.73713
0.804199,0.345703,0.290039,-2.5625,-3.5625,-0.4375,-0.166565,-0.524841,-0.517761,0.654785,0.690767,-1.03487,-1.74213
0.828125,0.370605,0.340332,5.8125,-17.4375,-4.5,-0.166687,-0.528015,-0.517395,0.652527,0.704559,-1.03836,-1.75497
0.885742,0.317383,0.416504,5.5,-21.625,-7.0625,-0.167419,-0.530823,-0.517029,0.650269,0.716323,-1.04212,-1.76673
0.911621,0.324707,0.445801,4.75,-12.1875,-3.25,-0.167786,-0.532227,-0.516663,0.649353,0.721883,-1.04432,-1.77196
0.88916,0.361816,0.442383,4.75,-4,1.125,-0.167358,-0.532654,-0.516296,0.649414,0.723579,-1.04443,-1.7723
0.883301,0.342773,0.456543,2.875,1.3125,2.6875,-0.166931,-0.532043,-0.516052,0.650208,0.720599,-1.04349,-1.76833
0.869629,0.316406,0.437988,-7.6875,12.375,4.5625,-0.167114,-0.529297,-0.516724,0.651855,0.708822,-1.04069,-1.75843
0.821777,0.324219,0.364746,-7.9375,19.125,3.1875,-0.166504,-0.526428,-0.5177,0.653625,0.697983,-1.03639,-1.74892
0.809082,0.315918,0.324707,-5.5,13.5625,0.625,-0.166016,-0.52478,-0.518372,0.65448,0.692258,-1.03338,-1.74396
0.805664,0.30957,0.310059,-8.5,5.625,0.4375,-0.166687,-0.523926,-0.519043,0.65448,0.688987,-1.03299,-1.74304
0.812988,0.352539,0.296875,-2.6875,-4.75,-0.8125,-0.167175,-0.525146,-0.519104,0.65332,0.694213,-1.03476,-1.74891
0.84375,0.367188,0.34668,6.75,-15.5625,-4,-0.167114,-0.528076,-0.518555,0.651367,0.706763,-1.03774,-1.75993
0.883301,0.335449,0.413086,5.9375,-18.75,-6.0625,-0.167542,-0.530701,-0.51825,0.649414,0.718028,-1.04107,-1.7709
0.90332,0.330566,0.435059,4.3125,-10.0625,-2.375,-0.167786,-0.53186,-0.517883,0.648682,0.722567,-1.04277,-1.77496
0.881836,0.361816,0.43457,6,-3.8125,1.9375,-0.167297,-0.53241,-0.517273,0.648865,0.724405,-1.04316,-1.77488
0.87793,0.341309,0.457031,3.25,2.5,3.5,-0.166809,-0.531677,-0.516907,0.649841,0.720683,-1.04209,-1.76986
0.852051,0.318359,0.429688,-5.9375,13.75,5.4375,-0.166687,-0.528992,-0.517395,0.651733,0.709112,-1.03922,-1.75939
0.812988,0.332031,0.36084,-6.375,16.875,2.25,-0.165955,-0.52655,-0.518311,0.653137,0.700322,-1.03498,-1.75157
0.802734,0.311523,0.330078,-4.8125,10.3125,-1.1875,-0.165527,-0.52533,-0.519043,0.653625,0.69659,-1.03247,-1.74874
0.813965,0.312988,0.320312,-7.8125,2.3125,-1.6875,-0.166138,-0.524902,-0.519775,0.653198,0.695479,-1.03222,-1.74994
0.824707,0.34375,0.308105,-3.125,-5.9375,-2.5,-0.166809,-0.526062,-0.520081,0.651917,0.700711,-1.03411,-1.75655
0.854004,0.369141,0.349609,5.5,-16.9375,-5.875,-0.166931,-0.529114,-0.519775,0.649658,0.714158,-1.03727,-1.76919
0.907227,0.326172,0.419922,1.875,-18.4375,-6.5625,-0.167908,-0.53125,-0.519775,0.647644,0.723304,-1.04053,-1.77946
0.924805,0.320312,0.442383,0,-5.3125,-1.0625,-0.168518,-0.531433,-0.519714,0.6474,0.723487,-1.0417,-1.7804
0.888672,0.361816,0.416992,4.25,3.125,3.1875,-0.167847,-0.531189,-0.519226,0.648193,0.721964,-1.04103,-1.77703
0.861816,0.338867,0.42041,1.375,6,5.8125,-0.16748,-0.530151,-0.518799,0.649475,0.716567,-1.04003,-1.77044
0.844238,0.323242,0.407715,-6.625,12.9375,7.1875,-0.167664,-0.527588,-0.519043,0.651245,0.704919,-1.03768,-1.75986
0.804688,0.334473,0.342285,-4.5,14.8125,3.875,-0.166992,-0.525757,-0.51947,0.652588,0.697927,-1.03468,-1.75295
0.788574,0.314453,0.328125,-2,8.625,-0.0625,-0.166382,-0.524963,-0.519836,0.653076,0.695616,-1.03266,-1.75054
0.803223,0.315918,0.322754,-3.5625,1.3125,-1.9375,-0.166565,-0.524963,-0.520264,0.65271,0.696265,-1.03256,-1.75225
0.819336,0.350586,0.312012,0.8125,-8,-3.5625,-0.166748,-0.526733,-0.520325,0.651184,0.704356,-1.03434,-1.76047
0.860352,0.371094,0.366699,8.6875,-20.125,-5.6875,-0.166748,-0.530273,-0.519653,0.648865,0.719517,-1.03813,-1.77389
0.905273,0.328125,0.437012,7.125,-20.75,-6.8125,-0.167297,-0.532959,-0.519226,0.646851,0.730872,-1.04161,-1.7849
0.930664,0.325195,0.464355,2.25,-8.625,-1.9375,-0.167786,-0.533508,-0.519043,0.646423,0.732691,-1.043,-1.78702
0.895508,0.35498,0.449219,3.5,1.1875,2.6875,-0.167297,-0.533081,-0.518738,0.647156,0.730484,-1.04225,-1.78359
0.875,0.34082,0.439453,0.125,6.375,4.125,-0.166931,-0.531738,-0.518616,0.648376,0.724243,-1.04054,-1.77676
0.853027,0.317383,0.407715,-10.25,15.1875,7.125,-0.167419,-0.528625,-0.519287,0.65033,0.710445,-1.0381,-1.76535
0.808594,0.334473,0.34375,-8.1875,17.875,4.1875,-0.166992,-0.526001,-0.520081,0.651917,0.700251,-1.03432,-1.75637
0.791992,0.314941,0.307129,-5.75,11.375,0.875,-0.166748,-0.524719,-0.520691,0.652527,0.695801,-1.03221,-1.75288
0.802246,0.309082,0.304199,-6.5625,3,-1.125,-0.167236,-0.524414,-0.52124,0.652222,0.694995,-1.03216,-1.75385
0.8125,0.340332,0.299316,-1.6875,-6.0625,-2.8125,-0.167664,-0.525757,-0.521362,0.650879,0.701017,-1.03377,-1.76053
0.845703,0.370117,0.335449,7.75,-18.75,-6,-0.167725,-0.529358,-0.520813,0.648438,0.716594,-1.03766,-1.77467
0.899902,0.325684,0.427734,9.4375,-20.4375,-7.3125,-0.167969,-0.532288,-0.520203,0.646423,0.729014,-1.04102,-1.78592
0.918457,0.327637,0.445801,3.375,-10.5625,-2.4375,-0.168396,-0.533325,-0.519897,0.645752,0.732951,-1.04294,-1.78978
0.899902,0.359375,0.443359,5.4375,-2.0625,2.1875,-0.167969,-0.533508,-0.519287,0.646118,0.733041,-1.0429,-1.78808
0.884277,0.337402,0.450195,3.3125,3.125,4.6875,-0.167603,-0.532715,-0.518799,0.647278,0.728613,-1.04223,-1.78232
0.859375,0.321777,0.419434,-8.0625,13.9375,7.1875,-0.167908,-0.529785,-0.519226,0.649231,0.715336,-1.03973,-1.77067
0.807129,0.339844,0.357422,-7.6875,18.1875,5.375,-0.167358,-0.5271,-0.519958,0.651001,0.704751,-1.0359,-1.76102
0.790039,0.323242,0.321777,-4.0625,11.3125,0.3125,-0.166809,-0.525818,-0.520569,0.651672,0.700573,-1.0333,-1.75735
0.796875,0.313965,0.318848,-7.1875,2.125,-0.9375,-0.167358,-0.525391,-0.52124,0.651367,0.699378,-1.03314,-1.75827
0.81543,0.341797,0.309082,-2.625,-5.8125,-3.3125,-0.167847,-0.526611,-0.521606,0.650024,0.705233,-1.03472,-1.76535
0.847656,0.369629,0.346191,5.6875,-16.6875,-6.375,-0.167847,-0.529602,-0.521362,0.647766,0.718708,-1.0375,-1.77795
0.901367,0.335449,0.411133,7,-19.6875,-7.25,-0.168274,-0.532471,-0.520935,0.64563,0.731042,-1.04094,-1.78973
0.931152,0.327148,0.454102,4.375,-9.375,-3.3125,-0.168518,-0.533386,-0.52063,0.64502,0.734609,-1.04229,-1.79297
0.901855,0.367676,0.430176,0.5625,0.3125,3.5625,-0.168457,-0.53302,-0.520386,0.645508,0.732447,-1.04209,-1.79031
0.876953,0.353516,0.439941,3,3.75,4.875,-0.167969,-0.532288,-0.519958,0.646667,0.728509,-1.04138,-1.78496
0.851074,0.315918,0.415527,-6.625,14.5625,6.0625,-0.167969,-0.529419,-0.520386,0.648621,0.715834,-1.03842,-1.77346
0.808594,0.326172,0.341309,-10.8125,17,4.75,-0.16803,-0.526672,-0.521301,0.650085,0.704782,-1.03518,-1.76458
0.796387,0.313965,0.315918,-3.5625,11.75,-0.125,-0.167419,-0.525452,-0.521851,0.650818,0.700799,-1.03269,-1.76091
0.806152,0.308594,0.310059,-5.625,1.875,-0.8125,-0.167969,-0.525269,-0.522278,0.650452,0.700279,-1.03288,-1.762
0.822266,0.341309,0.299805,-3.1875,-5.5625,-0.75,-0.168762,-0.526367,-0.522339,0.649353,0.704695,-1.03507,-1.76754
