acc_x,acc_y,acc_z,gyro_x,gyro_y,gyro_z,ori_x,ori_y,ori_z,ori_w,orie_x,orie_y,orie_z
0.312012,-0.889648,0.394531,1.3125,0.9375,-1.75,-0.0870972,0.549011,-0.818176,-0.147156,-1.15822,-0.308996,2.98864
0.309082,-0.880859,0.389648,0,0.875,-0.875,-0.0870972,0.549011,-0.818176,-0.147156,-1.15822,-0.308996,2.98864
0.312012,-0.884277,0.379883,-1.25,1.125,-0.5625,-0.0870361,0.549194,-0.817993,-0.1474,-1.15861,-0.309195,2.98821
0.314453,-0.89209,0.389648,-1.0625,1.3125,-0.25,-0.086853,0.549316,-0.817932,-0.147583,-1.15888,-0.309119,2.98774
0.313477,-0.892578,0.383301,0.25,1.9375,0.1875,-0.0866089,0.549255,-0.817932,-0.147766,-1.15864,-0.308892,2.98712
0.308594,-0.888672,0.38916,-0.3125,2.9375,0.8125,-0.0861206,0.549255,-0.817993,-0.147888,-1.15856,-0.308205,2.98637
0.307617,-0.885254,0.393555,-0.9375,2.75,0.625,-0.0856323,0.549255,-0.817993,-0.148132,-1.15844,-0.307648,2.9854
0.314453,-0.899902,0.396484,-0.3125,2.9375,0.5625,-0.085144,0.549194,-0.817993,-0.148315,-1.15816,-0.307002,2.9845
0.308105,-0.898926,0.398926,0.3125,2.8125,0.1875,-0.0847168,0.549011,-0.818115,-0.14856,-1.1576,-0.306515,2.98353
0.307617,-0.888672,0.404785,0.625,1.6875,0,-0.0844727,0.548767,-0.818298,-0.148743,-1.15694,-0.306263,2.98286
0.308105,-0.89502,0.40625,0.5625,1.125,0.0625,-0.0842896,0.548523,-0.818481,-0.148865,-1.15629,-0.306046,2.98235
0.304688,-0.900391,0.399414,0.1875,0.75,-0.0625,-0.0842896,0.548523,-0.818481,-0.148865,-1.15629,-0.306046,2.98235
0.304199,-0.891113,0.39209,1.125,0.625,-0.25,-0.0842285,0.54834,-0.818604,-0.148926,-1.15582,-0.305975,2.98211
0.30127,-0.884277,0.391602,1.375,0.5,-0.4375,-0.0842285,0.548096,-0.818726,-0.148987,-1.15519,-0.305991,2.9819
0.303223,-0.887207,0.39502,0.5625,0.125,-0.25,-0.0841675,0.548096,-0.818787,-0.148987,-1.15521,-0.305897,2.98185
0.307129,-0.896973,0.391602,-0.125,0.6875,-0.0625,-0.0841675,0.548096,-0.818726,-0.148987,-1.15518,-0.305886,2.98184
0.308594,-0.88916,0.390625,0.625,0.6875,0.375,-0.0842285,0.548096,-0.818726,-0.148987,-1.15519,-0.305991,2.9819
0.303711,-0.88623,0.39209,1.0625,1,0.4375,-0.0840454,0.547913,-0.818909,-0.148987,-1.15473,-0.305651,2.98164
0.308594,-0.88916,0.387207,0.6875,1.25,0.375,-0.0838623,0.547791,-0.81897,-0.149048,-1.15437,-0.30538,2.98128
0.308105,-0.891113,0.390137,0.1875,1.3125,0.5,-0.0836182,0.547791,-0.81897,-0.149109,-1.15432,-0.305031,2.9809
0.304199,-0.890625,0.397461,0.25,1.25,0.5625,-0.083374,0.547668,-0.819092,-0.149109,-1.15399,-0.304595,2.98059
0.301758,-0.896484,0.395996,-0.4375,1.0625,0.8125,-0.0830688,0.547729,-0.819092,-0.149109,-1.1541,-0.30409,2.98027
0.30957,-0.888672,0.404785,-0.5,1.375,0.625,-0.0828247,0.547668,-0.819153,-0.14917,-1.15391,-0.303732,2.97987
0.31543,-0.88916,0.402344,-1.1875,1.3125,0,-0.0827026,0.547729,-0.819092,-0.149414,-1.15401,-0.303811,2.97934
0.3125,-0.89209,0.398438,-1.625,1.3125,0.25,-0.0825195,0.547852,-0.81897,-0.149597,-1.15425,-0.303724,2.97886
0.300781,-0.895508,0.404297,-2.25,1.3125,0.0625,-0.0822144,0.548035,-0.818848,-0.149719,-1.15464,-0.303377,2.97838
0.303223,-0.900879,0.406738,-2.3125,0.4375,-0.125,-0.0820313,0.548279,-0.818665,-0.14978,-1.1552,-0.303178,2.97815
0.300781,-0.898438,0.402344,-0.4375,0.4375,-0.5625,-0.0820313,0.548279,-0.818726,-0.14978,-1.15522,-0.303189,2.97817
0.30127,-0.891602,0.400879,0.125,0.0625,-1,-0.0819702,0.548279,-0.818726,-0.14978,-1.15521,-0.303084,2.9781
0.30127,-0.892578,0.38916,-0.875,0.1875,-1.1875,-0.0820313,0.548401,-0.818604,-0.149963,-1.1555,-0.303416,2.97789
0.302734,-0.893555,0.393555,-0.8125,-0.25,-1.1875,-0.0820923,0.548523,-0.818481,-0.150085,-1.15578,-0.303679,2.97779
0.304199,-0.894531,0.401855,0.0625,-0.5,-1,-0.0820923,0.548462,-0.818481,-0.150085,-1.15561,-0.30366,2.97776
0.303711,-0.890137,0.396973,0.75,-0.3125,-1.3125,-0.0822754,0.54834,-0.818542,-0.150208,-1.15533,-0.304086,2.97771
0.310547,-0.88623,0.391602,0.6875,-0.125,-1.375,-0.0825195,0.548157,-0.818604,-0.150452,-1.15487,-0.304738,2.97749
0.311035,-0.891602,0.385254,-0.375,0.0625,-1.25,-0.0826416,0.548279,-0.818481,-0.150635,-1.15517,-0.305176,2.97735
0.310547,-0.89502,0.38623,-0.4375,0.25,-1.3125,-0.0827637,0.548401,-0.818359,-0.150879,-1.15546,-0.305684,2.97711
0.307617,-0.891602,0.387207,0.5625,0.1875,-1.125,-0.0828857,0.54834,-0.818359,-0.151001,-1.1553,-0.306014,2.97701
0.302734,-0.880371,0.388672,0.5625,0.625,-1.0625,-0.0828857,0.548218,-0.818359,-0.151184,-1.15495,-0.306186,2.97663
0.306152,-0.886719,0.391602,0.25,1,-1.0625,-0.0828247,0.548157,-0.81842,-0.151428,-1.15478,-0.306353,2.97613
0.311035,-0.892578,0.395996,0.1875,1.0625,-0.875,-0.0827637,0.548035,-0.81842,-0.151672,-1.1544,-0.30649,2.97558
0.310547,-0.894531,0.400391,0.8125,0.875,-0.625,-0.0828247,0.548035,-0.81842,-0.151733,-1.15441,-0.306665,2.97555
0.310059,-0.883789,0.397949,1.375,0.5625,-0.875,-0.0828857,0.547729,-0.818604,-0.151917,-1.15364,-0.306915,2.97519
0.308105,-0.885254,0.398438,1.25,0.5,-0.875,-0.0828857,0.547485,-0.818726,-0.152039,-1.15301,-0.306999,2.97488
0.308594,-0.885742,0.394531,0.1875,0.375,-0.875,-0.0829468,0.547485,-0.818726,-0.152039,-1.15302,-0.307104,2.97495
0.306152,-0.887695,0.404297,-0.75,0.3125,-0.6875,-0.0828857,0.547424,-0.818726,-0.152039,-1.15284,-0.306979,2.97484
0.308594,-0.89209,0.399902,-1.375,0.375,-1.0625,-0.0828857,0.547546,-0.818604,-0.152283,-1.1531,-0.307278,2.97447
0.310547,-0.891602,0.392578,-0.625,0.1875,-1.0625,-0.0830078,0.547668,-0.818542,-0.152466,-1.15343,-0.307726,2.97435
0.313965,-0.89209,0.392578,0.375,0.1875,-1,-0.0830078,0.547668,-0.818542,-0.152466,-1.15343,-0.307726,2.97435
0.312012,-0.890625,0.395508,1.125,0,-0.8125,-0.0831299,0.547485,-0.818604,-0.152588,-1.15296,-0.308028,2.97419
0.310059,-0.880859,0.393555,1.3125,0.1875,-0.9375,-0.083252,0.547241,-0.818726,-0.15271,-1.15235,-0.308321,2.97402
0.305664,-0.882324,0.395508,0.6875,-0.25,-0.6875,-0.083252,0.547241,-0.818726,-0.15271,-1.15235,-0.308321,2.97402
0.311035,-0.883789,0.404297,0.1875,-0.375,-0.5625,-0.083252,0.547241,-0.818726,-0.15271,-1.15235,-0.308321,2.97402
0.310547,-0.87793,0.399902,0,0.375,-0.1875,-0.083252,0.54718,-0.818726,-0.152771,-1.15217,-0.308372,2.97388
0.304199,-0.877441,0.401367,-1.6875,0.5,-0.25,-0.0831299,0.547302,-0.818665,-0.152832,-1.15246,-0.308261,2.97369
0.310547,-0.900391,0.408691,-2.8125,-1.5,-1.5,-0.083374,0.547607,-0.81842,-0.152954,-1.15323,-0.308876,2.97387
0.324707,-0.910645,0.408203,-2.3125,-3.375,-1,-0.0839233,0.547974,-0.818115,-0.152832,-1.15423,-0.309743,2.97482
0.318359,-0.902344,0.409668,-0.6875,-3.875,0.375,-0.0844116,0.548035,-0.818115,-0.152466,-1.15452,-0.31018,2.97603
0.308105,-0.889648,0.413574,1.5625,-2.5625,-0.5625,-0.0848389,0.547729,-0.818298,-0.152283,-1.15385,-0.310638,2.97671
0.307617,-0.875488,0.395508,1.25,-1.375,-0.75,-0.085083,0.547485,-0.818481,-0.152283,-1.1533,-0.311013,2.97689
0.309082,-0.864746,0.379883,-1.8125,-1.0625,0.125,-0.0852661,0.547791,-0.818237,-0.152222,-1.15408,-0.311311,2.97731
0.316895,-0.873535,0.374512,-3.4375,-1.125,1.3125,-0.0853271,0.548401,-0.817871,-0.151978,-1.15565,-0.311264,2.97804
0.319824,-0.877441,0.369629,-1.8125,-1.0625,2.25,-0.0853271,0.548889,-0.817627,-0.151672,-1.15693,-0.311025,2.97877
0.31543,-0.871582,0.375977,0.4375,-0.3125,3.5625,-0.085144,0.548889,-0.817688,-0.151184,-1.15695,-0.310158,2.9794
0.316895,-0.869629,0.375488,0.5,0.875,4.5625,-0.0847168,0.54895,-0.81781,-0.150696,-1.15713,-0.308903,2.97981
0.30957,-0.881836,0.385742,-0.375,2.3125,5.5625,-0.0839233,0.549011,-0.817932,-0.150146,-1.15724,-0.306949,2.9799
0.300781,-0.890625,0.391113,-1.1875,2.375,6.3125,-0.0828857,0.549194,-0.818054,-0.149475,-1.15766,-0.304474,2.97999
0.299805,-0.88623,0.398926,-1.0625,1.1875,6.4375,-0.0820313,0.549316,-0.818237,-0.148682,-1.15797,-0.302166,2.98047
0.30957,-0.894531,0.413086,-0.5,0,7.3125,-0.0813599,0.549255,-0.818481,-0.147705,-1.15786,-0.299915,2.98138
0.299805,-0.901367,0.418457,1.625,-0.625,6.9375,-0.0808105,0.54895,-0.81897,-0.146667,-1.1572,-0.29777,2.98247
0.287109,-0.903809,0.416992,1.375,-1.5,6.1875,-0.0802612,0.548645,-0.819397,-0.145569,-1.15652,-0.295547,2.98365
0.280762,-0.911621,0.414551,-1.4375,-3.9375,5.625,-0.0800171,0.548889,-0.819458,-0.144287,-1.15727,-0.293743,2.98568
0.297363,-0.906738,0.426758,-2.75,-6.625,6.75,-0.0802002,0.549255,-0.819458,-0.142761,-1.15842,-0.292416,2.98866
0.304199,-0.904297,0.435547,1.75,-7.1875,7.3125,-0.0806274,0.54895,-0.819946,-0.141113,-1.15799,-0.291249,2.99188
0.285645,-0.916504,0.414551,1.625,-5.4375,6.0625,-0.0807495,0.548767,-0.820251,-0.139648,-1.15774,-0.289777,2.99448
0.274902,-0.919434,0.388672,-7.875,-8.375,6.1875,-0.0809326,0.550293,-0.819519,-0.137878,-1.16181,-0.288379,2.99829
0.3125,-0.886719,0.414063,1.75,-10.1875,9.125,-0.0817871,0.55011,-0.819946,-0.135803,-1.16181,-0.287479,3.00277
0.315918,-0.908203,0.375,-1.3125,-7.9375,11.6875,-0.0820313,0.550781,-0.819824,-0.133484,-1.16383,-0.285402,3.00727
0.297363,-0.907715,0.383301,0.25,-7.8125,13.4375,-0.0819702,0.551208,-0.820007,-0.13092,-1.16526,-0.282504,3.01178
0.28418,-0.908203,0.376953,0.5,-4.125,10,-0.081604,0.551453,-0.820129,-0.129089,-1.16604,-0.279864,3.01459
0.292969,-0.905762,0.35498,-0.125,-0.75,11,-0.0808716,0.551941,-0.820129,-0.127441,-1.16736,-0.276854,3.01677
0.291016,-0.908203,0.373047,-3.3125,0.0625,15.5,-0.0794678,0.552734,-0.820068,-0.125366,-1.16938,-0.272278,3.01903
0.228027,-0.932129,0.400391,-2.4375,-3,18.125,-0.0775757,0.553345,-0.820313,-0.122253,-1.17101,-0.265684,3.02244
0.230469,-0.926758,0.400391,3.1875,-5.9375,16,-0.0765991,0.553162,-0.820984,-0.11908,-1.17081,-0.260448,3.0267
0.243652,-0.96875,0.382813,0.9375,-6.4375,18.75,-0.0754395,0.553589,-0.821289,-0.115601,-1.17211,-0.254649,3.03148
0.217285,-0.999023,0.411133,7.25,-7.0625,28.1875,-0.0733643,0.553162,-0.822449,-0.110413,-1.17135,-0.245281,3.03785
0.177246,-0.994141,0.418945,15,-8.8125,31.25,-0.071106,0.551636,-0.824463,-0.10437,-1.16797,-0.234541,3.04516
0.187988,-0.972656,0.414551,15.3125,-13.375,37,-0.0692139,0.550171,-0.826477,-0.097168,-1.1649,-0.223173,3.05488
0.193359,-0.981934,0.416992,12.6875,-16.375,42.3125,-0.0673828,0.549194,-0.828186,-0.0891113,-1.1631,-0.211053,3.06626
0.186523,-0.997559,0.427246,18.125,-18.4375,46.5625,-0.0655518,0.547485,-0.830383,-0.0802002,-1.15957,-0.197974,3.07891
0.202148,-0.976563,0.455078,29.25,-21.75,47.125,-0.0645752,0.543823,-0.833679,-0.0709839,-1.15141,-0.185945,3.09261
0.205078,-0.974609,0.486328,31.5625,-24.75,47.9375,-0.0641479,0.539673,-0.837219,-0.0614014,-1.14222,-0.17457,3.1075
0.202148,-0.99707,0.491699,31.5625,-27.8125,48.3125,-0.0641479,0.535583,-0.840454,-0.0515137,-1.13322,-0.163737,3.12347
0.17334,-0.991699,0.498047,38.875,-28.9375,47.8125,-0.06427,0.530457,-0.844299,-0.0413818,-1.12184,-0.153025,3.13988
0.123047,-0.998047,0.482422,46.0625,-34.375,44.125,-0.0651855,0.524536,-0.848328,-0.0309448,-1.10872,-0.143553,-3.12555
0.150879,-0.890625,0.528809,47.9375,-43.125,39.125,-0.0682983,0.517395,-0.852783,-0.020752,-1.09318,-0.138403,-3.10597
0.166016,-0.82959,0.496094,43.1875,-55.375,21.125,-0.0750732,0.510864,-0.856323,-0.0123291,-1.07984,-0.141644,-3.08542
0.164063,-0.885254,0.46875,42,-69.0625,8.875,-0.0847778,0.504944,-0.859009,-0.0043335,-1.06887,-0.150595,-3.06246
0.189453,-0.917969,0.450684,48.4375,-73.3125,2.5625,-0.0958862,0.498291,-0.861694,0.00311279,-1.05696,-0.162866,-3.03914
0.193848,-0.906738,0.419922,53.625,-70.4375,1.125,-0.106628,0.491089,-0.864502,0.0102539,-1.04418,-0.175184,-3.01691
0.192383,-0.810547,0.466309,60.125,-66.4375,2.1875,-0.116516,0.482056,-0.868164,0.017334,-1.02735,-0.186681,-2.99612
0.196289,-0.743164,0.458496,51.625,-58.3125,-0.875,-0.125488,0.47406,-0.871216,0.0230103,-1.01292,-0.198132,-2.97864
0.200684,-0.680664,0.449219,37.3125,-55.375,-13.3125,-0.135071,0.467651,-0.873169,0.0262451,-1.00243,-0.212938,-2.96455
0.318359,-0.794922,0.486328,27.3125,-46.0625,-16.125,-0.144348,0.462952,-0.874146,0.0275879,-0.995791,-0.22881,-2.95376
0.274902,-0.855957,0.485352,28.0625,-30.75,-17,-0.150757,0.458679,-0.875305,0.0280762,-0.988948,-0.240471,-2.9474
0.29248,-0.880371,0.50293,29.0625,-14.6875,-7.0625,-0.153931,0.454651,-0.876831,0.0287476,-0.981284,-0.246284,-2.94403
0.266113,-0.851563,0.543457,31.0625,-4.1875,2.75,-0.154358,0.450256,-0.878967,0.0302734,-0.971662,-0.246581,-2.94208
0.233887,-0.812988,0.564453,29.375,-5.3125,5.9375,-0.154419,0.445923,-0.881042,0.0325317,-0.962136,-0.245546,-2.93913
0.271484,-0.791016,0.561523,22.875,-11.5,0.5625,-0.15625,0.442261,-0.882507,0.0339355,-0.95488,-0.248311,-2.93576
0.268555,-0.79248,0.541992,19.6875,-17.0625,-4.5625,-0.159363,0.439209,-0.883484,0.0350342,-0.949633,-0.253521,-2.93152
0.264648,-0.815918,0.556152,24.5625,-16.4375,-5.8125,-0.162292,0.435425,-0.884766,0.0360718,-0.942623,-0.258643,-2.92777
0.250488,-0.808105,0.569824,30.375,-14.125,-4.8125,-0.164551,0.430786,-0.886536,0.0373535,-0.933415,-0.262585,-2.9245
0.240723,-0.764648,0.581055,32.4375,-11.625,-5.5625,-0.166321,0.425537,-0.888733,0.0383911,-0.92261,-0.266085,-2.92243
0.250977,-0.733887,0.585938,27.0625,-12.5,-9.125,-0.168579,0.420837,-0.890503,0.0387573,-0.913165,-0.270921,-2.92092
0.265625,-0.768555,0.585938,20.5,-13.8125,-10,-0.171265,0.417358,-0.891602,0.0388794,-0.906673,-0.276454,-2.91909
0.276367,-0.807617,0.589355,20.5,-10.375,-6.75,-0.173218,0.414368,-0.892639,0.0392456,-0.901009,-0.280377,-2.91745
0.279785,-0.787109,0.587402,25.125,-1.3125,-4.25,-0.173584,0.410706,-0.894226,0.0395508,-0.892989,-0.281669,-2.91766
0.264648,-0.73291,0.612793,24.125,0.1875,-0.9375,-0.173279,0.406799,-0.896057,0.0401611,-0.884172,-0.281566,-2.91807
0.278809,-0.737305,0.591797,15.5625,-0.5,-0.6875,-0.173401,0.40448,-0.897034,0.0405273,-0.879079,-0.282032,-2.91798
0.28125,-0.774902,0.581055,11.6875,0.6875,0.875,-0.173279,0.403198,-0.897644,0.0410156,-0.876256,-0.281722,-2.91762
0.313965,-0.79541,0.617188,19.375,1,5.0625,-0.172913,0.400696,-0.898743,0.0422363,-0.870692,-0.280629,-2.91646
0.283203,-0.718262,0.623047,26.1875,0.5625,1.625,-0.172607,0.396606,-0.900635,0.0432129,-0.861621,-0.280291,-2.91626
0.287598,-0.6875,0.624512,19.125,-0.875,-0.75,-0.172852,0.393311,-0.901978,0.0435791,-0.854433,-0.281229,-2.91635
0.285156,-0.708984,0.620117,11.3125,-3.875,-5.6875,-0.173828,0.391296,-0.90271,0.0432739,-0.850375,-0.28376,-2.91666
0.279785,-0.720215,0.621582,12.25,-10.9375,-9.9375,-0.176147,0.389099,-0.903198,0.0428467,-0.846525,-0.288849,-2.91595
0.279785,-0.720703,0.619629,16.0625,-14.3125,-12.8125,-0.179077,0.386292,-0.90387,0.0423584,-0.841645,-0.295271,-2.91504
0.288574,-0.688965,0.604492,15.5625,-16.5,-15.9375,-0.182678,0.383301,-0.904419,0.0414429,-0.836583,-0.303294,-2.91435
0.294922,-0.72168,0.597168,12.6875,-15.25,-12.4375,-0.185852,0.381287,-0.904663,0.0409546,-0.833631,-0.309976,-2.91299
0.285156,-0.683105,0.581543,8.8125,-15.6875,-15.25,-0.18927,0.379639,-0.904724,0.039978,-0.831535,-0.317424,-2.91221
0.313965,-0.694824,0.614746,6.5625,-11,-10.3125,-0.191711,0.378296,-0.904785,0.0393066,-0.829661,-0.32275,-2.91165
0.285645,-0.708496,0.637695,2.8125,-8.375,-3,-0.192871,0.377869,-0.904724,0.0396729,-0.829434,-0.324683,-2.91003
0.329102,-0.728516,0.655762,2,-3.375,-1.5,-0.193481,0.377563,-0.904724,0.0397339,-0.8291,-0.325825,-2.90945
0.279785,-0.696777,0.635254,0.375,-1.25,3.4375,-0.193054,0.377686,-0.904724,0.0405273,-0.829338,-0.324367,-2.90831
0.296875,-0.714355,0.665527,1.625,-0.625,5.375,-0.192444,0.377563,-0.904846,0.041626,-0.829003,-0.322387,-2.90684
0.311035,-0.750488,0.672852,-3.5,1.6875,11.5,-0.191284,0.378662,-0.904541,0.043335,-0.831248,-0.318592,-2.9043
0.254395,-0.739746,0.673828,1.5,0.8125,16.5,-0.189331,0.379089,-0.904602,0.0462646,-0.831843,-0.312524,-2.90045
0.244141,-0.714355,0.675781,1.5,6.4375,17.8125,-0.186401,0.379456,-0.904968,0.0490112,-0.831763,-0.304881,-2.89794
0.215332,-0.725586,0.655762,-3.875,3.8125,26.4375,-0.183167,0.381104,-0.904663,0.0531616,-0.834636,-0.295155,-2.89259
0.20166,-0.754395,0.635254,5.25,-0.25,24.5625,-0.180664,0.381592,-0.904663,0.0577393,-0.835394,-0.286727,-2.88616
0.262695,-0.712402,0.641602,4.1875,6.3125,28.9375,-0.177612,0.381958,-0.904846,0.0620728,-0.835527,-0.277555,-2.88078
0.166016,-0.73584,0.654297,-4.8125,4.5625,39.25,-0.173279,0.384216,-0.904297,0.0682983,-0.839521,-0.263963,-2.87251
0.162598,-0.789551,0.67334,5.6875,5.125,45.4375,-0.168335,0.385193,-0.904175,0.0758057,-0.840509,-0.24856,-2.86276
0.178223,-0.763672,0.644043,16.75,11.5625,44,-0.162781,0.38446,-0.904907,0.0827637,-0.837284,-0.233069,-2.8551
0.145996,-0.762207,0.638672,9.375,19.875,54.125,-0.155151,0.385315,-0.905151,0.0905762,-0.83658,-0.21267,-2.84732
0.0942383,-0.779297,0.647461,-2.75,34.1875,69.8125,-0.144165,0.388794,-0.904541,0.0997314,-0.840093,-0.184298,-2.83951
0.0166016,-0.734863,0.649902,-0.125,37.375,76.4375,-0.131653,0.391663,-0.903992,0.109924,-0.841607,-0.15251,-2.83123
0.0185547,-0.720215,0.644531,-12.5625,37.4375,79.125,-0.119446,0.39624,-0.902405,0.120056,-0.846954,-0.120728,-2.8226
0.0170898,-0.749023,0.625,-23.125,37,85.125,-0.107483,0.40271,-0.899536,0.130737,-0.85649,-0.0881853,-2.81265
0.0288086,-0.789551,0.585449,-24.5,41.6875,89,-0.0950928,0.409851,-0.896118,0.141418,-0.867271,-0.0545347,-2.80331
0.0112305,-0.763184,0.569336,-21.25,50.1875,96.875,-0.0808716,0.416504,-0.892578,0.152588,-0.876213,-0.0172624,-2.79487
-0.00292969,-0.740723,0.586426,-24.0625,55.6875,99.1875,-0.0657959,0.423157,-0.888733,0.163513,-0.884896,0.0214351,-2.78784
-0.0244141,-0.724609,0.590332,-36.25,58.8125,101.313,-0.050293,0.431519,-0.883667,0.174377,-0.897321,0.0616488,-2.78162
-0.0800781,-0.676758,0.580566,-54.6875,57.1875,99.375,-0.0357056,0.441895,-0.877075,0.184875,-0.914715,0.100929,-2.7758
-0.145508,-0.794434,0.540527,-63.625,41.9375,94.375,-0.0239258,0.453857,-0.869019,0.195679,-0.936789,0.13646,-2.76777
-0.165039,-0.904297,0.542969,-52.0625,27.125,88.1875,-0.0148926,0.463806,-0.86145,0.206421,-0.955372,0.16659,-2.75762
-0.161621,-0.865723,0.54541,-42.1875,26.5,83.625,-0.00610352,0.471619,-0.854797,0.21637,-0.969394,0.194885,-2.74861
-0.135254,-0.776367,0.49707,-44,28.5,92.125,0.00323486,0.479309,-0.847717,0.227295,-0.983027,0.225274,-2.73863
-0.143555,-0.838379,0.560059,-50.25,25.1875,95.0625,0.0117188,0.487305,-0.839905,0.238647,-0.997581,0.255029,-2.72737
-0.151367,-0.884766,0.611328,-56.6875,10.125,79.875,0.0161743,0.494995,-0.832336,0.248901,-1.01267,0.276858,-2.71466
-0.148926,-0.904785,0.592773,-52,-2.625,65.9375,0.0174561,0.501587,-0.825562,0.257996,-1.02616,0.291758,-2.70099
-0.155273,-0.891113,0.573242,-45.875,-5.3125,60.3125,0.0181885,0.507019,-0.819519,0.266479,-1.03721,0.304726,-2.68765
-0.182129,-0.872559,0.562012,-45.125,0.125,55.5625,0.0195313,0.512512,-0.813599,0.273865,-1.04848,0.317823,-2.677
-0.198242,-0.898926,0.532227,-45,-3.375,45.125,0.0194702,0.518066,-0.807983,0.279968,-1.06055,0.327363,-2.66754
-0.181641,-0.906738,0.544922,-34.625,-9.4375,33.1875,0.0177002,0.521667,-0.804016,0.284729,-1.06863,0.331572,-2.65826
-0.171875,-0.869629,0.501953,-32.9375,-11.375,23.8125,0.0150146,0.525024,-0.800598,0.288391,-1.07663,0.332986,-2.65012
-0.157715,-0.901367,0.48877,-45.4375,-14.5625,19.0625,0.0105591,0.530151,-0.796143,0.291504,-1.0895,0.331959,-2.64193
-0.166504,-0.916016,0.459473,-45.9375,-12.0625,12.375,0.00585938,0.535583,-0.791809,0.293396,-1.10349,0.329484,-2.63582
-0.163574,-0.891113,0.435059,-35.8125,-11.8125,5.6875,0.00128174,0.539673,-0.788696,0.294373,-1.11447,0.325467,-2.63104
-0.201172,-0.849609,0.424805,-34.6875,-7,1.8125,-0.00238037,0.543762,-0.785828,0.294739,-1.12542,0.322348,-2.62832
-0.25293,-0.843262,0.36377,-43.5625,-5.5625,1.6875,-0.0057373,0.549561,-0.781616,0.295105,-1.14046,0.320865,-2.62639
-0.222168,-0.925781,0.321289,-44.9375,-1.75,5.625,-0.0088501,0.556213,-0.776855,0.295105,-1.15768,0.319964,-2.62565
-0.327637,-2.21582,0.149414,21.6875,-68.125,26.1875,-0.019104,0.556885,-0.773987,0.300781,-1.16141,0.310388,-2.60489
-0.594727,-0.672363,0.431152,58.625,-45.125,-69.0625,-0.0251465,0.545837,-0.782593,0.29834,-1.13685,0.290395,-2.59944
0.0859375,-0.772949,0.486328,-38.5625,-26.5,-11.6875,-0.0349731,0.547791,-0.781128,0.297546,-1.14516,0.274795,-2.59148
-0.168945,-1.25098,0.313477,-44.375,-13.8125,16.0625,-0.0397949,0.554932,-0.775269,0.299011,-1.16402,0.273557,-2.58603
-0.314453,-0.975098,0.401855,4.1875,-3,38.5625,-0.0362549,0.554626,-0.773499,0.304504,-1.16114,0.285551,-2.57955
-0.35498,-0.834961,0.393555,4.9375,0.1875,36.4375,-0.0317383,0.554077,-0.771973,0.309875,-1.15732,0.298815,-2.57419
-0.253418,-0.952637,0.436035,-13.5625,-0.375,28.25,-0.0304565,0.555725,-0.76947,0.313293,-1.16033,0.306097,-2.56979
-0.252441,-0.917969,0.40332,1.6875,8.875,30.0625,-0.0269775,0.555969,-0.768311,0.31604,-1.15924,0.315154,-2.56839
-0.312012,-0.861328,0.421875,1.8125,12.875,28.9375,-0.0223999,0.556091,-0.767212,0.318787,-1.15745,0.325917,-2.568
-0.374512,-0.849609,0.367676,-7.8125,16.125,29.6875,-0.017334,0.558228,-0.764709,0.321411,-1.16056,0.338773,-2.56912
-0.456543,-0.804688,0.397461,1.0625,13.4375,29.9375,-0.0112915,0.558716,-0.763,0.324951,-1.15917,0.353176,-2.56892
-0.364258,-0.818848,0.416016,-7,13.8125,19.125,-0.00769043,0.559937,-0.761475,0.326416,-1.16079,0.361665,-2.57029
-0.339844,-0.914551,0.38623,-1.8125,16.25,17.5625,-0.0043335,0.561096,-0.760437,0.326904,-1.16259,0.368545,-2.57329
-0.434082,-0.807129,0.385742,11.8125,18.625,12.75,0.000854492,0.560425,-0.760803,0.327332,-1.15936,0.377061,-2.57753
-0.419922,-0.81543,0.359863,3.5,13.8125,10.6875,0.00445557,0.560791,-0.760315,0.327698,-1.15919,0.383658,-2.58061
-0.433594,-0.818359,0.406738,-4.1875,11.5,10.75,0.00744629,0.561584,-0.759399,0.328491,-1.16025,0.390078,-2.58256
-0.386719,-0.84082,0.419434,-13.25,18.6875,8.6875,0.0100098,0.563843,-0.757874,0.328003,-1.16541,0.395269,-2.58711
-0.351074,-0.866699,0.445801,-12.75,32.6875,6.375,0.0137939,0.566589,-0.756836,0.325623,-1.17203,0.400488,-2.59683
-0.394531,-0.820313,0.39502,-16.3125,44.125,1.625,0.0189819,0.570679,-0.75531,0.321716,-1.18222,0.407013,-2.61151
-0.425293,-0.825195,0.361816,-28.5625,40.0625,6.375,0.0236206,0.576294,-0.752075,0.318909,-1.19643,0.414901,-2.62443
-0.455078,-0.807129,0.339844,-34.6875,35.625,5.3125,0.0274658,0.58252,-0.748108,0.31665,-1.21252,0.422459,-2.63598
-0.467773,-0.827148,0.258789,-28,17.8125,-7.375,0.0281372,0.587585,-0.745117,0.31427,-1.22623,0.423827,-2.64378
-0.440918,-0.91748,0.288086,-11.0625,0.75,-13.625,0.0263062,0.589478,-0.744446,0.312439,-1.23183,0.419735,-2.64612
-0.419434,-0.958008,0.314941,0.0625,-0.25,-9.0625,0.0251465,0.589661,-0.744934,0.311096,-1.23275,0.416265,-2.64742
-0.442871,-0.894531,0.295898,6.8125,-1.75,2.0625,0.0256958,0.588867,-0.7453,0.311584,-1.23047,0.41727,-2.64668
-0.450684,-0.837891,0.301758,0.25,-2.6875,4.625,0.0263062,0.588684,-0.744934,0.312744,-1.22967,0.419614,-2.64513
-0.428223,-0.894043,0.293457,-6.9375,-6.125,3.1875,0.0255127,0.589417,-0.743958,0.313782,-1.23151,0.420106,-2.64275
-0.407227,-0.961914,0.334961,-1.1875,-1.625,8.125,0.0256348,0.589478,-0.74353,0.314697,-1.23147,0.421505,-2.64125
-0.412109,-0.891602,0.331543,14.1875,3.25,10.375,0.027771,0.587585,-0.744507,0.315613,-1.22598,0.424923,-2.64085
-0.429688,-0.848145,0.330078,8.375,6.4375,11.4375,0.0303955,0.586609,-0.744812,0.316528,-1.22288,0.42974,-2.64154
-0.445313,-0.829102,0.297363,0.3125,4.9375,9.3125,0.0322876,0.586853,-0.744141,0.317444,-1.22309,0.434149,-2.64204
-0.447754,-0.870605,0.310547,5.25,0.75,5,0.0333862,0.586243,-0.744324,0.318054,-1.22121,0.436328,-2.64179
-0.431152,-0.90625,0.321289,1.4375,1.0625,3.9375,0.0338135,0.586182,-0.744263,0.318298,-1.22095,0.437298,-2.64178
-0.442871,-0.873535,0.318848,-3.375,5.3125,5.125,0.0349121,0.586853,-0.743591,0.318481,-1.22256,0.439762,-2.643
-0.459961,-0.855957,0.268066,-11.6875,8.9375,5.125,0.0361938,0.589172,-0.74176,0.318359,-1.2286,0.443199,-2.64595
-0.455566,-0.872559,0.293457,-4.6875,1.5625,2.25,0.0365601,0.590027,-0.740967,0.318542,-1.23079,0.444578,-2.64648
-0.464355,-0.891113,0.284668,-2.3125,-2.9375,2.6875,0.036438,0.590454,-0.740356,0.319214,-1.23181,0.445508,-2.64536
-0.446289,-0.907227,0.324707,-3.4375,-1.875,6.3125,0.036499,0.590637,-0.739807,0.32019,-1.23209,0.446972,-2.64374
-0.448242,-0.844727,0.320313,-6.8125,1.25,8.3125,0.0372925,0.591309,-0.738708,0.321289,-1.23354,0.450103,-2.64293
-0.459961,-0.840332,0.306641,-9.6875,-0.375,7.0625,0.0376587,0.592407,-0.737305,0.32251,-1.2362,0.452979,-2.64173
-0.44043,-0.87207,0.316895,-9.6875,-3.8125,6.9375,0.0372314,0.593201,-0.736084,0.323853,-1.23807,0.454519,-2.63922
-0.447754,-0.876465,0.30957,-8.9375,-2.5,5.6875,0.0369873,0.594055,-0.734924,0.32489,-1.24015,0.456012,-2.6375
-0.459961,-0.878418,0.301758,-4.1875,-5.0625,6.25,0.0367432,0.594299,-0.734192,0.326233,-1.24056,0.457507,-2.63493
-0.467773,-0.850098,0.305664,-4.5625,-6,8.1875,0.0367432,0.59436,-0.733276,0.328125,-1.24031,0.459985,-2.63143
-0.475586,-0.868652,0.288574,-5.25,-9.1875,9.1875,0.036438,0.594543,-0.732178,0.330322,-1.24036,0.462448,-2.62714
-0.45752,-0.902832,0.314453,-4.625,-7.75,11.5625,0.0361938,0.594543,-0.731201,0.33252,-1.2399,0.46489,-2.62278
-0.456055,-0.883301,0.310547,-4.625,-2.9375,15.1875,0.0369263,0.594788,-0.72998,0.334717,-1.23999,0.469098,-2.61965
-0.447266,-0.870117,0.312012,-4.125,0.8125,17.8125,0.0384521,0.595093,-0.728638,0.336853,-1.24015,0.474567,-2.6175
-0.447754,-0.861816,0.285156,-2.4375,-1.25,19.5625,0.039917,0.595276,-0.727295,0.339294,-1.23994,0.480261,-2.61467
-0.46875,-0.849609,0.30957,3.8125,-8.3125,19.9375,0.0411377,0.593994,-0.726685,0.342651,-1.23554,0.48573,-2.60888
-0.504395,-0.843262,0.310547,-0.875,-7,15.9375,0.0420532,0.593445,-0.725647,0.345581,-1.23322,0.490649,-2.60396
-0.492188,-0.850586,0.302734,-6.25,-6.5,18.5,0.0428467,0.593689,-0.723938,0.348694,-1.23305,0.496178,-2.5991
-0.479004,-0.855957,0.311523,-2.8125,-6.5,20.375,0.0437622,0.593384,-0.722595,0.351868,-1.23133,0.501601,-2.59386
-0.492188,-0.817871,0.314941,0.625,-3,19.875,0.0455322,0.592712,-0.721619,0.354797,-1.22856,0.50785,-2.58976
-0.500488,-0.800293,0.32373,-1.1875,-2.6875,17.75,0.0471191,0.592224,-0.72052,0.357544,-1.22632,0.513688,-2.58584
-0.516602,-0.802734,0.3125,-3.25,-6.4375,13.75,0.0477905,0.591919,-0.719421,0.360229,-1.22471,0.518084,-2.58122
-0.501465,-0.815918,0.31543,-3.8125,-6.6875,12.8125,0.0480347,0.591675,-0.718384,0.36261,-1.22336,0.521417,-2.57668
-0.516602,-0.811035,0.30957,1.75,-8.375,11.1875,0.0484009,0.590698,-0.717957,0.36499,-1.21998,0.524405,-2.57179
-0.539551,-0.801758,0.321289,6.375,-8.1875,7.625,0.0489502,0.589111,-0.718201,0.367004,-1.215,0.526748,-2.56738
-0.522949,-0.811523,0.320313,4.9375,-6.5625,4.5625,0.0490112,0.587952,-0.718506,0.368347,-1.21146,0.527726,-2.56408
-0.526367,-0.80127,0.332031,11.8125,-2.4375,-5.75,0.0491333,0.586121,-0.720154,0.367981,-1.20652,0.526059,-2.56366
-0.44043,-0.789063,0.387695,10.375,-0.6875,-8.9375,0.0483398,0.583984,-0.722473,0.366882,-1.2011,0.521701,-2.56352
-0.526367,-0.812988,0.324707,-3.875,3.4375,-9.0625,0.0478516,0.584717,-0.722595,0.365601,-1.20354,0.519793,-2.56603
-0.49707,-0.82373,0.321777,-5.875,1.9375,-6.6875,0.0469971,0.585571,-0.722473,0.364624,-1.20626,0.51776,-2.56763
-0.501465,-0.842285,0.312012,3.875,1.25,-8.5625,0.0464478,0.585266,-0.723389,0.363281,-1.20585,0.514882,-2.56942
-0.500488,-0.845215,0.300781,2.9375,-4.375,-3.3125,0.0456543,0.584839,-0.723816,0.363159,-1.20482,0.513088,-2.5685
-0.509277,-0.868164,0.298828,5.5,-9.125,2.5,0.0450439,0.583923,-0.724121,0.364197,-1.20215,0.512733,-2.56529
-0.52832,-0.850586,0.307129,12.4375,-13.75,6.3125,0.0448608,0.581665,-0.724915,0.366272,-1.19549,0.513393,-2.55958
-0.50293,-0.832031,0.342285,11.3125,-11.4375,7.3125,0.0448608,0.579346,-0.725769,0.368286,-1.18866,0.51421,-2.55414
-0.485352,-0.854004,0.349609,6.625,-3.0625,7.3125,0.0453491,0.578186,-0.726135,0.369263,-1.18515,0.515379,-2.55193
-0.46582,-0.833984,0.350098,2.0625,0,11.5,0.0462036,0.577698,-0.72583,0.370483,-1.18334,0.517981,-2.55006
-0.50293,-0.818359,0.341797,-0.0625,1.0625,12.5,0.0475464,0.577576,-0.725098,0.372009,-1.18236,0.522074,-2.54839
-0.520996,-0.817871,0.320313,-9.5,0,12.8125,0.0482788,0.578796,-0.723206,0.373657,-1.18504,0.526342,-2.54666
-0.500488,-0.826172,0.333496,-9.6875,2.3125,14.75,0.0492554,0.580017,-0.721313,0.375305,-1.18771,0.531033,-2.54522
-0.519043,-0.79248,0.354004,-0.875,6.75,11.75,0.0513306,0.580139,-0.720581,0.376221,-1.18745,0.535762,-2.54562
-0.535156,-0.837402,0.303711,-7.875,5.5,15.0625,0.0529785,0.581604,-0.718567,0.377502,-1.19081,0.541301,-2.54573
-0.560059,-0.798828,0.328613,-10.6875,5.0625,18.125,0.0550537,0.583069,-0.716187,0.379578,-1.19394,0.548605,-2.54484
-0.583984,-0.800293,0.285645,-18.0625,7.3125,16.3125,0.0568848,0.585876,-0.71283,0.381226,-1.20093,0.556009,-2.54542
-0.519043,-0.804688,0.310547,-0.75,3.8125,12.0625,0.0583496,0.586121,-0.712036,0.382202,-1.20115,0.55993,-2.54524
-0.536621,-0.773438,0.348145,11.8125,5.8125,5.625,0.0604858,0.584534,-0.713013,0.382385,-1.19643,0.562483,-2.54589
-0.555664,-0.776367,0.306641,2.875,3.375,3.8125,0.0617676,0.584412,-0.712891,0.382629,-1.19589,0.564855,-2.54668
-0.586914,-0.780762,0.292969,-3.875,-1.25,4.1875,0.0621948,0.5849,-0.711975,0.383545,-1.19691,0.567153,-2.54566
-0.556152,-0.805664,0.317871,-5.0625,-5.0625,4.375,0.0617065,0.585144,-0.711182,0.384644,-1.19726,0.567959,-2.54307
-0.51416,-0.864746,0.333984,-2.375,0.0625,5.375,0.0614624,0.585327,-0.710876,0.384949,-1.19769,0.568094,-2.54232
-0.523438,-0.824707,0.312988,6.75,4.0625,11.1875,0.0632324,0.584717,-0.710876,0.38562,-1.1956,0.571457,-2.54239
-0.569336,-0.754395,0.34082,5.1875,2.5,11.4375,0.0653076,0.58374,-0.710693,0.387085,-1.19217,0.576081,-2.54085
-0.550781,-0.800293,0.326172,-5.1875,0.4375,11.375,0.0661011,0.584229,-0.709534,0.388428,-1.19303,0.579569,-2.53938
-0.545898,-0.814453,0.326172,-3,3.625,15.1875,0.067627,0.584595,-0.708313,0.389832,-1.19343,0.584268,-2.53839
-0.567383,-0.773438,0.326172,2.6875,6.1875,14.3125,0.0700684,0.584351,-0.707581,0.391052,-1.19209,0.589784,-2.53824
-0.581543,-0.769531,0.304688,0.4375,5.625,11.25,0.0721436,0.584534,-0.706726,0.391968,-1.19212,0.594637,-2.53869
-0.60498,-0.760254,0.297363,-0.5625,2.6875,7.4375,0.0736084,0.584778,-0.705872,0.392822,-1.19238,0.598427,-2.53863
-0.61377,-0.759277,0.297363,-0.375,-2.6875,3.875,0.0740967,0.584717,-0.705383,0.393799,-1.19185,0.6005,-2.53716
-0.595215,-0.774902,0.302246,-3.625,-5,0.8125,0.0734863,0.584839,-0.704895,0.394531,-1.19195,0.600524,-2.53507
-0.587891,-0.773926,0.308105,-3.9375,-4.4375,-0.5,0.0727539,0.585022,-0.704529,0.395081,-1.19234,0.600162,-2.53334
-0.584473,-0.758789,0.322266,-4.5,-3.875,-3.125,0.0718994,0.585205,-0.704346,0.395325,-1.19285,0.599193,-2.53211
-0.570801,-0.762695,0.328613,-5.625,-2.875,-5.8125,0.0706177,0.58551,-0.704346,0.395142,-1.1939,0.597041,-2.53142
-0.539063,-0.794434,0.334961,-7.8125,-1.25,-5.6875,0.0690308,0.586182,-0.704224,0.394531,-1.19612,0.594096,-2.53147
-0.553223,-0.771484,0.327637,-5.0625,0.625,-5.1875,0.0681763,0.58667,-0.704224,0.393982,-1.19778,0.592332,-2.5321
-0.557617,-0.769531,0.317383,-4.875,-0.4375,-6.3125,0.0671387,0.587158,-0.704285,0.393372,-1.19947,0.590182,-2.53267
-0.570313,-0.770508,0.310059,-12.4375,-1.9375,-9.125,0.0653076,0.588501,-0.703613,0.392761,-1.20361,0.587382,-2.53296
-0.571777,-0.82959,0.309082,-20.5,-3.625,-8.25,0.0625,0.590881,-0.702148,0.392273,-1.21076,0.583972,-2.53284
-0.562012,-0.816406,0.27832,-23.3125,-1.5,-5.25,0.0601196,0.593872,-0.700073,0.391907,-1.21958,0.581959,-2.5334
-0.544434,-0.85498,0.265625,-17.625,-3.125,1.9375,0.0583496,0.59613,-0.69812,0.392273,-1.22605,0.581361,-2.53253
-0.5625,-0.827637,0.262207,-16.125,-7.25,5.875,0.0568237,0.597839,-0.695984,0.393738,-1.2306,0.582221,-2.5293
-0.598633,-0.772949,0.257813,-13.6875,-9.3125,3.125,0.055603,0.598999,-0.694092,0.395447,-1.23347,0.58348,-2.52542
-0.59375,-0.789063,0.269043,-12.625,-13.3125,-2,0.0532837,0.59967,-0.69281,0.396851,-1.23515,0.582113,-2.52052
-0.558105,-0.828125,0.275879,-9,-12.9375,-2.1875,0.0507202,0.599976,-0.692139,0.397949,-1.23598,0.579649,-2.51581
-0.549316,-0.806152,0.288086,-2.8125,-12.3125,0,0.0490112,0.599426,-0.692017,0.399231,-1.23423,0.578122,-2.51099
-0.568359,-0.773926,0.263672,0.25,-14.125,-1,0.0474854,0.598511,-0.692078,0.400696,-1.23139,0.576829,-2.50572
-0.563965,-0.786133,0.312988,-1,-18.5625,-2.3125,0.045105,0.597046,-0.692383,0.402588,-1.22699,0.574228,-2.49824
-0.545898,-0.827637,0.316895,-6.1875,-14.8125,-3.1875,0.0424194,0.596619,-0.692261,0.403748,-1.22585,0.571028,-2.49275
-0.525879,-0.822754,0.318848,-0.1875,-8.9375,-3.0625,0.0407104,0.595764,-0.69281,0.404236,-1.22359,0.568143,-2.48933
-0.537109,-0.803223,0.321777,-2.5625,-1.9375,-4.3125,0.0397949,0.595703,-0.693054,0.404053,-1.22365,0.566345,-2.48874
-0.562012,-0.820313,0.279785,-1.8125,0.5625,-3.875,0.0393677,0.59613,-0.692993,0.403503,-1.22507,0.565271,-2.48966
-0.557617,-0.808105,0.288086,3.625,-1.125,-4.8125,0.0391235,0.595642,-0.693665,0.403076,-1.22387,0.563863,-2.4899
-0.562988,-0.800293,0.279785,8.8125,1,-9.875,0.0391235,0.594849,-0.695068,0.401794,-1.22204,0.561434,-2.49189
-0.58252,-0.794922,0.274414,14.6875,-3.375,-13.5625,0.0387573,0.59314,-0.697266,0.400574,-1.21773,0.557705,-2.49277
-0.571289,-0.810547,0.284668,10.125,-3.625,-17.625,0.0375366,0.59198,-0.69928,0.398865,-1.21526,0.552406,-2.4941
-0.535645,-0.830078,0.295898,6.0625,-5,-17.5,0.0355225,0.591125,-0.701111,0.397156,-1.21382,0.546088,-2.49488
-0.505371,-0.824219,0.313477,7.375,-4.1875,-16.9375,0.0336304,0.589966,-0.703186,0.395386,-1.21153,0.539637,-2.49568
-0.522461,-0.830078,0.29834,4.75,-7,-12,0.0318604,0.589111,-0.704468,0.394531,-1.20981,0.534877,-2.49499
-0.495117,-0.839355,0.325684,9.875,-10.6875,-10.1875,0.0299072,0.587158,-0.70636,0.394165,-1.20499,0.529527,-2.49237
-0.484375,-0.839844,0.336914,10.6875,-9.0625,-8.6875,0.0283203,0.585083,-0.708313,0.39386,-1.1998,0.524755,-2.48999
-0.476563,-0.824707,0.35498,9.375,-7.5625,-7.1875,0.0269775,0.58313,-0.710144,0.393616,-1.19492,0.520569,-2.48789
-0.480469,-0.82666,0.311035,4.4375,-6.625,-6.3125,0.0256348,0.582275,-0.71106,0.393311,-1.19303,0.517243,-2.48658
-0.490723,-0.838379,0.337402,2.4375,-7.1875,-3.8125,0.024353,0.581421,-0.71167,0.393494,-1.19098,0.514654,-2.48433
-0.512695,-0.819336,0.330078,0.6875,-6.625,-5,0.0231934,0.580933,-0.712097,0.393616,-1.18995,0.512503,-2.48268
-0.489258,-0.82373,0.354004,0.875,-4.875,-5.5625,0.0220337,0.580261,-0.712769,0.393433,-1.1885,0.509794,-2.48144
-0.488281,-0.811523,0.344238,2.9375,-0.8125,-7.9375,0.0213623,0.579712,-0.713684,0.392578,-1.18744,0.507114,-2.4821
-0.479492,-0.842285,0.334473,4.1875,0.3125,-8.0625,0.0206909,0.579224,-0.714722,0.391418,-1.18665,0.504094,-2.48343
-0.495605,-0.813965,0.344238,7.0625,-2.5,-6.0625,0.0203857,0.578125,-0.715881,0.390991,-1.18394,0.502104,-2.48334
-0.482422,-0.807617,0.365234,3.1875,-2.0625,-7.4375,0.0195923,0.577271,-0.716919,0.390381,-1.18206,0.499291,-2.48324
-0.474121,-0.822266,0.351074,-1.0625,-2.1875,-8.625,0.0183105,0.577148,-0.717529,0.389526,-1.18233,0.495994,-2.4836
-0.489746,-0.819336,0.350586,-3.0625,-1.5,-11.3125,0.0169067,0.577332,-0.718018,0.388428,-1.18351,0.492445,-2.48449
-0.492676,-0.850586,0.340332,-9.4375,-1.5,-12.3125,0.0149536,0.57843,-0.717896,0.387085,-1.18733,0.488468,-2.48582
-0.489258,-0.866699,0.339355,-11.25,2,-6.6875,0.0137329,0.580017,-0.717163,0.386047,-1.19213,0.48649,-2.48753
-0.479004,-0.814941,0.35498,-11,4.8125,-4.25,0.0133057,0.581421,-0.716492,0.385193,-1.19619,0.485878,-2.4896
-0.490234,-0.831055,0.33252,-15.6875,8.4375,-9.375,0.0125122,0.583923,-0.715454,0.383362,-1.20354,0.484326,-2.49386
-0.491699,-0.851074,0.312012,-14.9375,5.375,-12.625,0.0110474,0.586243,-0.714661,0.381348,-1.21062,0.481281,-2.49765
-0.483887,-0.870117,0.307617,-8,3,-11.9375,0.00970459,0.587585,-0.714539,0.379517,-1.21501,0.477844,-2.5006
-0.460449,-0.87207,0.309082,-5.4375,1.75,-10.125,0.00836182,0.588501,-0.714661,0.377991,-1.2182,0.474448,-2.50275
-0.443359,-0.883301,0.314941,-8.5,1.5625,-4.0625,0.00726318,0.589661,-0.714172,0.377075,-1.22179,0.472448,-2.50401
-0.450195,-0.883789,0.308105,-5.8125,1.375,-0.25,0.0067749,0.590576,-0.713623,0.37677,-1.22446,0.472027,-2.50466
-0.455078,-0.87207,0.307617,-0.875,2.625,0.375,0.00695801,0.590881,-0.713562,0.376404,-1.22531,0.472091,-2.50574
-0.457031,-0.864746,0.310547,2.6875,3.6875,0.625,0.00756836,0.590759,-0.713806,0.376038,-1.2249,0.472485,-2.50697
-0.46582,-0.86377,0.323242,0.625,7,2.0625,0.00866699,0.591003,-0.713806,0.37561,-1.22536,0.473886,-2.50908
-0.473145,-0.84375,0.300293,-3.9375,8.4375,1.8125,0.00970459,0.592041,-0.713257,0.375,-1.22803,0.475603,-2.51197
-0.476563,-0.869141,0.299805,-1.125,6.3125,2.375,0.0106812,0.592712,-0.712891,0.374634,-1.22968,0.47724,-2.51412
-0.481934,-0.863281,0.299805,2.9375,6.125,3.375,0.0120239,0.592773,-0.712952,0.37439,-1.22958,0.479123,-2.51606
-0.486328,-0.836426,0.29834,4.125,5.25,2.875,0.0134888,0.592651,-0.713074,0.374329,-1.22893,0.481298,-2.51768
-0.48291,-0.856934,0.301758,1.9375,2.6875,3.5,0.0143433,0.59259,-0.713013,0.374512,-1.22852,0.482864,-2.5182
-0.475098,-0.85498,0.300293,1.5625,0.875,4.5,0.0150146,0.592468,-0.71283,0.374939,-1.22791,0.484408,-2.51796
-0.472656,-0.865723,0.294434,2.875,-0.75,5.9375,0.015625,0.592163,-0.712708,0.37561,-1.22678,0.486028,-2.51711
-0.487305,-0.845215,0.300293,4.125,-1.6875,6.3125,0.0164185,0.591614,-0.712708,0.376587,-1.22491,0.488148,-2.51582
-0.480469,-0.838379,0.32959,5.8125,-1.625,4.1875,0.0170898,0.590515,-0.713135,0.37738,-1.22157,0.489373,-2.51426
-0.473633,-0.853516,0.319336,3.5,0.0625,3.75,0.0176392,0.589966,-0.713379,0.377808,-1.21987,0.490372,-2.51371
-0.481934,-0.842285,0.321777,1.6875,1.5625,5.75,0.0185547,0.589722,-0.713196,0.378418,-1.21883,0.492453,-2.51329
-0.48877,-0.827148,0.31543,1.1875,0.4375,6,0.0194092,0.589478,-0.712952,0.379211,-1.21777,0.494679,-2.51249
-0.491699,-0.836914,0.310547,-1.4375,-2.1875,5.4375,0.0196533,0.589478,-0.712463,0.380127,-1.21748,0.496279,-2.51096
-0.488281,-0.834961,0.30957,-3.4375,-3.4375,5.375,0.0195923,0.589661,-0.711731,0.381226,-1.2177,0.49778,-2.50887
-0.489746,-0.869141,0.299316,-4.1875,-4.4375,6.6875,0.0193481,0.590027,-0.710815,0.382385,-1.21844,0.49922,-2.50657
-0.486816,-0.859863,0.306641,-2.25,-3,9,0.0196533,0.590149,-0.710022,0.383667,-1.21836,0.50151,-2.50446
-0.494141,-0.844727,0.307617,-0.25,-2.25,9.625,0.0203247,0.590027,-0.709351,0.385071,-1.2175,0.504351,-2.50234
-0.507324,-0.826172,0.313965,0.0625,-1.9375,8.5625,0.0211182,0.589783,-0.70874,0.386475,-1.21627,0.507286,-2.50022
-0.496094,-0.840332,0.305176,-3.125,-4.4375,9.25,0.0212402,0.589905,-0.707825,0.388062,-1.21616,0.509691,-2.49736
-0.503906,-0.848145,0.313477,-3.3125,-6.25,10.6875,0.0213013,0.589844,-0.706787,0.389954,-1.21544,0.512244,-2.49359
-0.511719,-0.823242,0.310059,-5.125,-7.0625,11.3125,0.0214233,0.589905,-0.705505,0.392212,-1.21496,0.515493,-2.48931
-0.519531,-0.804199,0.314941,-7.75,-10.25,9.75,0.020874,0.590027,-0.704041,0.394714,-1.21473,0.518038,-2.48387
-0.524414,-0.822266,0.305176,-11,-14.375,9.75,0.0195313,0.590332,-0.702209,0.397522,-1.21507,0.519873,-2.47703
-0.531738,-0.796387,0.302734,-10.5625,-18.5625,8.6875,0.0178223,0.590332,-0.700439,0.400757,-1.2146,0.521436,-2.46883
-0.527832,-0.817383,0.29834,-14.5625,-21.9375,6.5,0.0150146,0.590637,-0.698364,0.403992,-1.21523,0.521517,-2.45962
-0.52002,-0.83252,0.306152,-15.5,-24,4.8125,0.0115967,0.59082,-0.696411,0.407104,-1.21576,0.520372,-2.4499
-0.509766,-0.833008,0.302734,-13.625,-25.3125,3.8125,0.00793457,0.590759,-0.694763,0.410217,-1.21581,0.518646,-2.43994
-0.50293,-0.848145,0.304688,-14.375,-25.6875,2.875,0.00402832,0.590698,-0.693115,0.413147,-1.21601,0.51631,-2.43001
-0.500977,-0.853027,0.316406,-10.125,-21.8125,1.375,0.000671387,0.590332,-0.692017,0.415466,-1.21543,0.51376,-2.42163
-0.506836,-0.814453,0.314941,-8.0625,-19.25,1.375,-0.00189209,0.589783,-0.691101,0.417725,-1.21416,0.512225,-2.41409
-0.494141,-0.803223,0.339355,-10.125,-17.8125,-0.375,-0.00469971,0.589355,-0.690247,0.419739,-1.21342,0.510098,-2.40692
-0.483398,-0.808105,0.348633,-8.5,-16.9375,-3.25,-0.00769043,0.588745,-0.689819,0.421265,-1.21244,0.506849,-2.40045
-0.475586,-0.814941,0.345703,-6.125,-13.5,-4.9375,-0.0102539,0.588074,-0.689819,0.42218,-1.21135,0.503392,-2.39563
-0.481934,-0.811523,0.340332,-4.8125,-9.875,-7.6875,-0.0125122,0.587585,-0.690002,0.422424,-1.21082,0.49969,-2.39251
-0.474609,-0.824219,0.348633,-5,-5.125,-10.75,-0.0145874,0.587402,-0.690552,0.421753,-1.21133,0.49534,-2.39171
-0.473633,-0.84082,0.342773,-3.625,0.75,-13.3125,-0.0161743,0.587585,-0.691345,0.420166,-1.21288,0.490881,-2.39345
-0.476563,-0.852051,0.331055,-1.625,4.875,-14.6875,-0.0172729,0.587952,-0.692383,0.417908,-1.21489,0.486461,-2.39712
-0.476074,-0.85791,0.3125,0.125,7.5625,-15.0625,-0.0178833,0.58844,-0.693481,0.415283,-1.21709,0.482432,-2.40197
-0.474609,-0.861328,0.308105,0.6875,7.1875,-14.1875,-0.0184326,0.588928,-0.69458,0.412781,-1.21925,0.47866,-2.40674
-0.470215,-0.86084,0.310547,0.3125,8.3125,-13.75,-0.0188599,0.589417,-0.695618,0.410278,-1.22134,0.475082,-2.41154
-0.467773,-0.868164,0.30127,-2.3125,7.625,-13.0625,-0.0194092,0.590332,-0.696289,0.407837,-1.22459,0.471799,-2.41637
-0.461914,-0.869629,0.300781,-2.1875,6.8125,-11.5,-0.0200195,0.591125,-0.696838,0.40564,-1.22744,0.468633,-2.42046
-0.45459,-0.87207,0.307617,-1.375,6,-9.375,-0.0204468,0.591675,-0.697449,0.403809,-1.22951,0.46601,-2.42397
-0.456055,-0.857422,0.300293,-2.375,5.1875,-8.4375,-0.020813,0.592285,-0.697815,0.402222,-1.23163,0.46387,-2.42701
-0.453613,-0.883789,0.297363,-5.4375,4.5,-7.5,-0.0215454,0.593323,-0.697754,0.400757,-1.235,0.461721,-2.42969
-0.445801,-0.884277,0.300293,-4.375,4.875,-5.375,-0.0219727,0.594177,-0.697754,0.399475,-1.23772,0.460119,-2.43222
-0.445313,-0.85791,0.298828,-2.75,3.5,-3.3125,-0.0220947,0.594727,-0.697754,0.398682,-1.23941,0.459366,-2.43396
-0.441895,-0.893066,0.303711,-3.875,1.1875,-0.8125,-0.022522,0.595276,-0.69751,0.398315,-1.24112,0.458715,-2.43456
-0.440918,-0.873535,0.286133,-0.0625,1.9375,0.6875,-0.0223389,0.595459,-0.697449,0.398071,-1.24157,0.458842,-2.43526
-0.441406,-0.88623,0.290527,2.9375,2.875,2.25,-0.0217285,0.595398,-0.697632,0.397888,-1.24123,0.459485,-2.43624
-0.451172,-0.898438,0.286133,4.75,3.625,3.5,-0.020752,0.595276,-0.697815,0.397766,-1.24057,0.460727,-2.43741
-0.45752,-0.891113,0.276855,9.625,3.9375,5.5,-0.019165,0.594666,-0.698364,0.397888,-1.23837,0.462797,-2.43858
-0.465332,-0.875977,0.291016,11.75,2.5625,7.5625,-0.0172729,0.593567,-0.698975,0.398499,-1.23463,0.465561,-2.43874
-0.471191,-0.871582,0.291016,11.6875,2.9375,8.1875,-0.0151978,0.592529,-0.699524,0.399231,-1.23098,0.468838,-2.43895
-0.475098,-0.876465,0.301758,11.25,3.625,9,-0.0130615,0.591492,-0.699951,0.399902,-1.22727,0.47214,-2.43913
-0.473145,-0.863281,0.3125,13.1875,5,8.4375,-0.0106201,0.590271,-0.700745,0.400452,-1.22306,0.475593,-2.43994
-0.474121,-0.854492,0.306152,13.25,4.875,8.75,-0.00817871,0.589111,-0.701477,0.401062,-1.21903,0.479196,-2.4407
-0.475098,-0.847168,0.317383,12.4375,3.3125,10.0625,-0.00585938,0.587769,-0.702087,0.401978,-1.21443,0.482858,-2.44049
-0.472656,-0.842285,0.320801,11.5,3,10.1875,-0.00366211,0.586548,-0.702576,0.402893,-1.2102,0.486445,-2.44019
-0.480469,-0.84668,0.336426,11.625,3.8125,10,-0.00140381,0.585266,-0.703125,0.403809,-1.2058,0.49008,-2.43992
-0.483398,-0.846191,0.331055,13.25,5.5625,9.4375,0.00115967,0.583984,-0.703857,0.404358,-1.2014,0.493726,-2.44065
-0.481934,-0.844727,0.321777,14.25,6.25,9.6875,0.00378418,0.582703,-0.704651,0.404846,-1.19702,0.497401,-2.4416
-0.480957,-0.835449,0.322754,13.25,7.5,8.8125,0.00646973,0.581665,-0.705322,0.405029,-1.19332,0.501007,-2.44323
-0.473145,-0.839355,0.333984,13.3125,6.0625,9.9375,0.00897217,0.580444,-0.706116,0.405518,-1.1892,0.504571,-2.44415
-0.490723,-0.802734,0.351074,13.625,5.8125,8.3125,0.0115356,0.578918,-0.70697,0.406067,-1.18416,0.508045,-2.44462
-0.502441,-0.793945,0.348145,9.1875,5.125,6.125,0.0136108,0.577942,-0.70752,0.406433,-1.18082,0.511,-2.44534
-0.504883,-0.807129,0.34375,4.125,3.625,4.375,0.0149536,0.577637,-0.707642,0.406677,-1.17955,0.513222,-2.44604
-0.496582,-0.834473,0.342285,2.9375,4.125,2.6875,0.0158081,0.577515,-0.707764,0.406555,-1.17898,0.51434,-2.44702
-0.490723,-0.82959,0.360352,6.875,4.3125,5.125,0.0171509,0.576782,-0.708252,0.406677,-1.17659,0.51602,-2.44764
-0.495117,-0.796875,0.375,10.3125,3.875,7.125,0.019104,0.575378,-0.708984,0.407288,-1.17208,0.51873,-2.44744
-0.507813,-0.797363,0.375488,8.25,3.0625,8.1875,0.0209961,0.574219,-0.709412,0.408081,-1.16819,0.521805,-2.44695
-0.518066,-0.799805,0.358887,7.4375,3.5,8.4375,0.0228882,0.573364,-0.709595,0.408875,-1.16511,0.525159,-2.44664
-0.530762,-0.808105,0.352539,12.1875,3.9375,8.4375,0.0252686,0.572144,-0.710144,0.409546,-1.16097,0.528834,-2.44685
-0.549316,-0.793457,0.340332,16.125,3.625,7.5,0.0279541,0.570496,-0.710938,0.410217,-1.15557,0.532631,-2.44696
-0.559082,-0.780762,0.339355,17.125,1.875,6.5,0.0305176,0.568665,-0.711914,0.410889,-1.14974,0.536077,-2.44686
-0.567383,-0.774414,0.345215,16.5625,0.75,3.0625,0.0325928,0.566772,-0.713074,0.411377,-1.14396,0.538439,-2.44665
-0.558594,-0.786133,0.355469,13.625,0,-0.6875,0.0338745,0.565186,-0.714294,0.411377,-1.1394,0.539144,-2.44687
-0.552734,-0.773438,0.370117,13,-0.9375,-2.25,0.0348511,0.563477,-0.715576,0.411316,-1.13458,0.539155,-2.44675
-0.537109,-0.778809,0.388672,12.375,-3.5625,-1,0.0353394,0.561523,-0.716919,0.411621,-1.12917,0.538607,-2.44533
-0.547852,-0.788086,0.365234,4.75,-3.25,0.375,0.0355835,0.560791,-0.717224,0.412048,-1.12701,0.538896,-2.44418
-0.541016,-0.828125,0.348633,-1.125,-2.3125,3.125,0.0354614,0.561157,-0.716736,0.412476,-1.12788,0.539562,-2.44346
-0.511719,-0.844727,0.343262,4.5625,-0.6875,4.375,0.0357666,0.560974,-0.716736,0.412659,-1.12723,0.540135,-2.44321
-0.496094,-0.824707,0.363281,16.0625,0.4375,4.6875,0.0369873,0.559204,-0.718018,0.412781,-1.12218,0.540742,-2.443
-0.502441,-0.814941,0.375488,18.1875,2.4375,1.25,0.0383911,0.557251,-0.719727,0.412354,-1.11679,0.540811,-2.44397
-0.497559,-0.798828,0.381836,14.625,2.1875,1.5625,0.0395508,0.555603,-0.721069,0.412048,-1.11221,0.540901,-2.44456
-0.502441,-0.819336,0.371094,11.6875,1.6875,2.125,0.0404053,0.554504,-0.722046,0.411743,-1.10919,0.540979,-2.44529
-0.496094,-0.828125,0.383789,13.5,2.9375,1.875,0.0414429,0.553162,-0.723267,0.411255,-1.10553,0.540925,-2.44637
-0.480957,-0.805176,0.401367,20.375,6.4375,2.6875,0.043457,0.551025,-0.72522,0.410522,-1.09964,0.541531,-2.44842
-0.518066,-0.799316,0.391602,17.625,12.75,-2.5625,0.0458984,0.549866,-0.72699,0.408691,-1.09661,0.542392,-2.45375
-0.51123,-0.790527,0.379395,13,18.4375,-2.5625,0.0487061,0.549744,-0.72821,0.40625,-1.0964,0.544047,-2.46128
-0.539551,-0.759277,0.400391,14.4375,16.5,-5.8125,0.0514526,0.549072,-0.729858,0.403931,-1.09482,0.545307,-2.46827
-0.546875,-0.745117,0.435547,21.5625,10.6875,-5.8125,0.0540771,0.546753,-0.732361,0.402283,-1.08872,0.545805,-2.47267
-0.508301,-0.757324,0.455566,18.875,7.125,-3.75,0.0557861,0.544312,-0.73468,0.401062,-1.08235,0.545184,-2.47514
-0.509766,-0.792969,0.432129,5.4375,10.9375,-8.5,0.0564575,0.544312,-0.735901,0.398743,-1.08308,0.543547,-2.48064
-0.497559,-0.788574,0.419922,12.1875,13.25,-4.8125,0.0582275,0.54364,-0.737427,0.396606,-1.08172,0.543459,-2.4863
-0.533203,-0.753418,0.430664,19.3125,12.375,-4.8125,0.060791,0.54187,-0.739502,0.394714,-1.0772,0.544135,-2.49138
-0.547852,-0.733887,0.442383,17.375,7.9375,-2.3125,0.0631104,0.539795,-0.741333,0.393799,-1.07161,0.545345,-2.49406
-0.522461,-0.711426,0.45166,8.875,8.4375,-1.125,0.0648804,0.538696,-0.742371,0.393005,-1.06863,0.54656,-2.49655
-0.552734,-0.73877,0.410645,-2.5,8.3125,-5.3125,0.0656128,0.539673,-0.742249,0.391785,-1.0715,0.547171,-2.50042
-0.559082,-0.78125,0.40918,-5.4375,10,-2.5,0.0664673,0.541199,-0.741699,0.390625,-1.07577,0.548501,-2.50467
-0.544922,-0.789551,0.419922,6.375,12.1875,1.0625,0.0685425,0.54126,-0.742065,0.389465,-1.07594,0.550754,-2.509
-0.5625,-0.773926,0.395508,15.6875,10.3125,1.875,0.0712891,0.540161,-0.743103,0.38855,-1.07287,0.553549,-2.51268
-0.556152,-0.73877,0.398438,14.75,3.875,4.1875,0.0734863,0.538574,-0.743958,0.388672,-1.06821,0.556242,-2.5133
-0.559082,-0.708984,0.429688,6.625,3.5,-3.125,0.074585,0.537659,-0.744751,0.388184,-1.06578,0.55685,-2.51468
-0.562988,-0.707031,0.44873,1.3125,2.125,-7.0625,0.074707,0.537292,-0.745422,0.387451,-1.06512,0.555921,-2.51613
-0.533203,-0.737793,0.456055,0.75,-0.125,-5,0.0743408,0.536804,-0.746033,0.386963,-1.06409,0.554323,-2.51646
-0.533691,-0.744629,0.44873,-0.1875,-2.0625,-1.625,0.0739136,0.536377,-0.746338,0.387085,-1.06301,0.553392,-2.51556
-0.533691,-0.757813,0.445801,1,-3.5,4.5625,0.0739136,0.535767,-0.746277,0.388,-1.06103,0.553979,-2.51319
-0.534668,-0.745605,0.459473,1.6875,-1.6875,8,0.0745239,0.534912,-0.746094,0.389343,-1.05811,0.555929,-2.51028
-0.516113,-0.725098,0.459961,0.1875,1.875,6.75,0.0753174,0.534485,-0.745911,0.390137,-1.05651,0.557898,-2.50902
-0.525879,-0.740234,0.443848,-6.25,2.6875,4.875,0.0756226,0.535156,-0.745178,0.390686,-1.05802,0.559616,-2.50867
-0.532715,-0.765625,0.433594,-9.5625,6,0.5,0.0756226,0.536682,-0.744263,0.390259,-1.06217,0.560318,-2.51055
-0.543945,-0.752441,0.407227,-11,9.8125,-1.875,0.0760498,0.538879,-0.743164,0.389221,-1.06828,0.561577,-2.51461
-0.546387,-0.779297,0.396973,-13.3125,14.1875,4.1875,0.0772705,0.541687,-0.741394,0.388489,-1.07577,0.565046,-2.51922
-0.561035,-0.780273,0.383789,-12.125,19.375,7.6875,0.0796509,0.544739,-0.739319,0.387695,-1.08379,0.570627,-2.5252
-0.567383,-0.762207,0.352539,-5.6875,19.25,4.375,0.0823364,0.547119,-0.737915,0.386414,-1.09025,0.575606,-2.53205
-0.58252,-0.755859,0.347656,-0.25,13.3125,-3.375,0.0840454,0.548523,-0.73761,0.384705,-1.09449,0.577611,-2.5383
-0.595703,-0.744141,0.38623,3.625,8.5,-9.5,0.0848999,0.548767,-0.738281,0.382874,-1.09578,0.577077,-2.54312
-0.577637,-0.741211,0.404785,1.375,6.0625,-11.875,0.0848999,0.549011,-0.739075,0.38092,-1.0972,0.574904,-2.54733
-0.532227,-0.720703,0.42041,-13.5625,10.8125,-10.3125,0.0844116,0.551086,-0.738586,0.378967,-1.10361,0.573265,-2.55245
-0.521973,-0.716797,0.369141,-22.9375,6,-16.1875,0.0822144,0.554504,-0.737427,0.37677,-1.11394,0.569363,-2.5574
-0.525391,-0.78418,0.372559,-16.375,-3.5,-19.0625,0.0786133,0.556702,-0.737183,0.374756,-1.12102,0.56233,-2.55963
-0.540527,-0.821289,0.373535,-8.4375,-6.375,-20.75,0.0750732,0.5578,-0.737793,0.37262,-1.12516,0.554445,-2.56131
-0.552734,-0.813477,0.36377,-6.5,-3.625,-17.625,0.0725098,0.558777,-0.73822,0.370789,-1.12874,0.548529,-2.5632
-0.545898,-0.776367,0.367188,-5.625,-1,-17.875,0.0705566,0.559692,-0.73877,0.368774,-1.13216,0.543402,-2.56605
-0.500977,-0.817871,0.357422,-9.875,-2.5625,-16.625,0.067688,0.561157,-0.738953,0.36676,-1.13713,0.537112,-2.5683
-0.512207,-0.849121,0.352539,-8.6875,-2.0625,-11.25,0.0654297,0.562561,-0.73877,0.365356,-1.14163,0.532566,-2.56981
-0.544434,-0.859863,0.345215,-3.9375,1.25,-8.6875,0.0645142,0.56366,-0.738708,0.363953,-1.14515,0.530083,-2.57245
-0.540527,-0.831055,0.344727,-3.3125,1.875,-6.25,0.0640259,0.564514,-0.738525,0.362976,-1.14779,0.528664,-2.57442
-0.530762,-0.828613,0.349609,-4.5,1.375,-1.5,0.0637817,0.56543,-0.738037,0.36261,-1.15039,0.528464,-2.57553
-0.484375,-0.821777,0.356934,-4.75,2.5625,0.5625,0.0635376,0.566223,-0.73761,0.362305,-1.15265,0.52825,-2.57643
-0.465332,-0.816406,0.36377,-4.3125,7.6875,-2.5,0.0635376,0.5672,-0.737488,0.361023,-1.15568,0.527368,-2.57964
-0.501953,-0.793457,0.386719,-0.125,8.4375,-5.125,0.0640259,0.567444,-0.737976,0.359619,-1.15675,0.526634,-2.58312
-0.529297,-0.795898,0.366211,-1.25,7,-6.875,0.0643921,0.567932,-0.73822,0.358215,-1.15844,0.525858,-2.58657
-0.557617,-0.873047,0.332031,-10.1875,5.125,-8.5625,0.0637207,0.570068,-0.737366,0.356628,-1.16473,0.524264,-2.59042
-0.45166,-0.907715,0.333008,-1.1875,-0.1875,-16.8125,0.0610352,0.570801,-0.738403,0.353821,-1.16785,0.516753,-2.59369
-0.492188,-0.879395,0.379883,17.625,-3.875,-17.3125,0.0595093,0.56842,-0.741455,0.351563,-1.16233,0.509702,-2.59503
-0.543945,-0.861816,0.405273,19,-5.25,-13.75,0.0588379,0.565552,-0.744263,0.350281,-1.15513,0.504975,-2.59498
-0.499512,-0.863281,0.416504,10.0625,-8.1875,-9.5625,0.057251,0.563538,-0.746155,0.349731,-1.15015,0.50021,-2.59316
-0.445801,-0.869141,0.416992,5.9375,-4.3125,-9.0625,0.055542,0.562317,-0.747742,0.348694,-1.14749,0.495208,-2.59277
-0.435547,-0.878418,0.390625,9.0625,-0.3125,-8.5,0.0545044,0.561157,-0.749451,0.347107,-1.14506,0.490719,-2.59415
-0.430664,-0.860352,0.399902,15.5,-0.375,-10.8125,0.0537109,0.559082,-0.751892,0.345215,-1.14027,0.485642,-2.59577
-0.413574,-0.841309,0.410645,19.625,-3,-15.4375,0.0523682,0.556213,-0.755127,0.343018,-1.13363,0.478751,-2.59704
-0.39209,-0.811523,0.401367,18.625,-3.5,-19.375,0.0505371,0.553528,-0.758423,0.340332,-1.12773,0.470603,-2.5989
-0.357422,-0.764648,0.382324,17.25,-2.0625,-28.25,0.0479736,0.551086,-0.762085,0.336365,-1.12295,0.459893,-2.60267
-0.32373,-0.787109,0.359863,9.25,-2.4375,-37.8125,0.0437622,0.55011,-0.765442,0.330994,-1.12268,0.445779,-2.60845
-0.335449,-0.833008,0.347656,10.1875,-5.875,-45.0625,0.0384521,0.549133,-0.769043,0.32489,-1.12275,0.428997,-2.61446
-0.34375,-0.830566,0.321777,16.4375,-8.9375,-53.8125,0.0325317,0.547424,-0.773438,0.317932,-1.12131,0.409783,-2.62106
-0.273438,-0.797852,0.315918,23.9375,-11.625,-59.125,0.0258789,0.544373,-0.778931,0.310242,-1.11683,0.387732,-2.62762
-0.23877,-0.776855,0.332031,26.8125,-15.5,-59.5,0.0186768,0.540527,-0.784729,0.302917,-1.11054,0.364822,-2.63269
-0.27832,-0.794434,0.359375,23,-18.1875,-63.6875,0.0110474,0.536865,-0.790161,0.295471,-1.10491,0.341303,-2.6376
-0.34668,-0.786621,0.38916,17.3125,-25.0625,-71.25,0.00238037,0.533447,-0.795166,0.288269,-1.10022,0.316601,-2.64118
-0.289063,-0.806152,0.395508,3.75,-27.6875,-73.8125,-0.00793457,0.531677,-0.799072,0.28064,-1.10021,0.289777,-2.64458
-0.246094,-0.856934,0.423828,0.25,-24.4375,-74,-0.0183105,0.530396,-0.802551,0.272461,-1.10156,0.262643,-2.64891
-0.295898,-0.92627,0.465332,2.9375,-23.3125,-72.0625,-0.02771,0.528687,-0.805969,0.264771,-1.10162,0.237522,-2.6531
-0.373047,-0.947266,0.49707,4,-28.4375,-74.375,-0.0369263,0.526489,-0.809326,0.257813,-1.1005,0.213314,-2.65599
-0.335938,-0.898438,0.481445,-2.25,-35.5625,-75,-0.0474243,0.524719,-0.811951,0.251343,-1.10089,0.187859,-2.6567
-0.262695,-0.890625,0.48584,3.4375,-47.625,-77.3125,-0.0599976,0.521362,-0.815125,0.245361,-1.09857,0.158699,-2.65411
-0.210938,-0.956543,0.487305,11.3125,-53.3125,-81.4375,-0.0737915,0.516724,-0.818726,0.239136,-1.09416,0.126642,-2.65042
-0.13916,-0.941895,0.495605,17.625,-54.4375,-72.5,-0.0869751,0.510986,-0.82251,0.234131,-1.08738,0.0963486,-2.64523
-0.0952148,-0.893066,0.506836,23.0625,-48.5625,-63.1875,-0.0983276,0.504517,-0.826416,0.229919,-1.07842,0.0695333,-2.64052
-0.0693359,-0.822754,0.517578,18.5625,-45.5,-61.875,-0.109131,0.498352,-0.830017,0.225586,-1.07025,0.0436954,-2.63679
-0.0297852,-0.834473,0.552734,11.6875,-47.375,-64.875,-0.120789,0.492737,-0.833008,0.220703,-1.06408,0.0162622,-2.63317
0.00341797,-0.905273,0.541016,3,-48,-69.0625,-0.133423,0.488647,-0.835022,0.214905,-1.06228,-0.012797,-2.63029
-0.00390625,-0.88623,0.522461,0.5625,-45.0625,-70.375,-0.145386,0.485046,-0.83667,0.208801,-1.06147,-0.0407344,-2.62856
-0.00195313,-0.850098,0.509766,5.8125,-42.0625,-72.875,-0.156677,0.480652,-0.838745,0.202332,-1.05871,-0.0683757,-2.62816
0.03125,-0.875,0.513672,-0.375,-36.6875,-73.9375,-0.167542,0.477356,-0.840271,0.194946,-1.05829,-0.0955885,-2.62972
0.0429688,-0.926758,0.521973,-4.8125,-32.8125,-70.625,-0.17749,0.475037,-0.841187,0.187683,-1.05959,-0.120584,-2.63186
0.0844727,-1.05566,0.541016,19,-16.9375,-61.6875,-0.183777,0.47052,-0.843811,0.181091,-1.0535,-0.14019,-2.63715
0.192383,-0.951172,0.524902,19,-13.625,-36.1875,-0.188477,0.466248,-0.845947,0.177307,-1.04706,-0.154154,-2.63926
0.172852,-0.856934,0.555664,0.75,-7.1875,-31.3125,-0.191895,0.464355,-0.847046,0.17334,-1.04499,-0.16485,-2.6428
0.145508,-0.922852,0.541504,-5.25,0.9375,-28.875,-0.193848,0.464233,-0.847534,0.169067,-1.04574,-0.172465,-2.64822
0.186035,-0.959961,0.618164,-0.3125,0.25,-22.4375,-0.195251,0.463074,-0.848511,0.165833,-1.04387,-0.17871,-2.65264
0.227051,-0.956543,0.628418,1.625,0.75,-19.9375,-0.196655,0.461487,-0.849609,0.162842,-1.04103,-0.184914,-2.65665
0.17334,-0.950195,0.598145,6.5625,3.75,-22.875,-0.197205,0.459656,-0.851074,0.159668,-1.03699,-0.190029,-2.66204
0.106445,-0.913574,0.560547,8.875,9.625,-29.125,-0.196777,0.457764,-0.852966,0.155457,-1.03195,-0.19459,-2.67042
0.146973,-0.892578,0.536621,9.8125,6.75,-24,-0.196777,0.455872,-0.854614,0.1521,-1.02732,-0.198972,-2.67685
0.210938,-0.822754,0.547363,11.0625,7.6875,-28.25,-0.19751,0.453064,-0.856689,0.147644,-1.02101,-0.20608,-2.68456
0.201172,-0.79541,0.474609,9.5,5.3125,-32.25,-0.199097,0.450806,-0.858398,0.1427,-1.0165,-0.214796,-2.6922
0.204102,-0.773926,0.444824,7.1875,3.5,-30.125,-0.200867,0.449097,-0.859619,0.138123,-1.01334,-0.223124,-2.69881
0.235352,-0.773926,0.42627,6.4375,6.8125,-25.5,-0.202087,0.447815,-0.860657,0.13385,-1.01075,-0.229998,-2.70539
0.25,-0.709473,0.429199,4.875,14.625,-25.875,-0.202332,0.446472,-0.862061,0.128662,-1.00714,-0.236145,-2.71474
0.240234,-0.654297,0.41748,-3.8125,16.6875,-28.9375,-0.202637,0.446228,-0.863037,0.12262,-1.00592,-0.242709,-2.72537
0.222656,-0.677246,0.397949,-13.5,15.5,-30.875,-0.203308,0.447693,-0.863037,0.11615,-1.00871,-0.249507,-2.73588
0.227539,-0.741211,0.375977,-22.4375,16.875,-31.625,-0.203979,0.450989,-0.862061,0.109192,-1.01554,-0.255983,-2.74668
0.166016,-0.770996,0.352539,-24.9375,13.625,-33.4375,-0.204712,0.454956,-0.860596,0.1026,-1.02401,-0.261978,-2.7565
0.120605,-0.697754,0.318359,-24.875,9.5625,-34.0625,-0.205811,0.45874,-0.85907,0.0963745,-1.03243,-0.2684,-2.76527
0.287598,-1.00244,0.453125,49.875,30,-67,-0.205872,0.450867,-0.864258,0.0859375,-1.01266,-0.282086,-2.78622
0.202148,-1.09082,0.625488,67.4375,41.9375,-19.1875,-0.19873,0.441833,-0.870911,0.0830688,-0.986682,-0.276248,-2.80226
0.220703,-1.03418,0.602539,54.9375,57.9375,24.0625,-0.186523,0.436279,-0.876221,0.0847168,-0.966481,-0.255729,-2.81414
0.0869141,-0.960938,0.637695,40.3125,60.4375,20.6875,-0.173279,0.432495,-0.880676,0.0856323,-0.950111,-0.233243,-2.82737
0.121582,-0.93457,0.726563,43.125,40.8125,5.625,-0.164368,0.426636,-0.885254,0.0855103,-0.931946,-0.219817,-2.83813
0.197266,-0.89502,0.703125,38,24.4375,-1.1875,-0.159546,0.421021,-0.888855,0.0848389,-0.916709,-0.213814,-2.84546
0.217285,-0.725586,0.696777,10.375,25.125,2.8125,-0.15509,0.418762,-0.890869,0.0836792,-0.909218,-0.207738,-2.8525
0.198242,-0.748535,0.643066,3.375,11.25,0.5,-0.153076,0.417908,-0.891663,0.0830078,-0.906186,-0.205039,-2.85586
0.247559,-0.827148,0.60498,8.25,2.8125,3.8125,-0.15271,0.417053,-0.89209,0.0834961,-0.904179,-0.204234,-2.85552
0.244141,-0.766602,0.614746,19.125,8.4375,8.875,-0.15094,0.414307,-0.893555,0.0845337,-0.897338,-0.201052,-2.85591
0.201172,-0.760742,0.601563,20.25,9.25,9,-0.148621,0.411621,-0.895081,0.0857544,-0.890423,-0.196725,-2.85648
0.205078,-0.8125,0.625488,20.5625,10.375,8.4375,-0.14624,0.409119,-0.896484,0.086853,-0.883868,-0.192321,-2.85721
0.220215,-0.721191,0.633301,23.3125,14.25,8.125,-0.143433,0.405518,-0.898499,0.0874634,-0.874654,-0.187916,-2.85944
0.17627,-0.768555,0.657715,21.25,13.25,3.25,-0.140625,0.402466,-0.90033,0.0876465,-0.866658,-0.1837,-2.86234
0.151855,-0.794922,0.668945,28.1875,7.3125,1.5,-0.138611,0.398438,-0.902405,0.0882568,-0.856981,-0.18082,-2.86387
0.170898,-0.766602,0.695313,31.3125,4.4375,0.125,-0.137207,0.393433,-0.904724,0.0888062,-0.845436,-0.179351,-2.86506
0.181641,-0.723633,0.692383,23.4375,3.6875,-1.4375,-0.136292,0.389404,-0.906616,0.0888672,-0.836241,-0.17887,-2.86656
0.219727,-0.685547,0.575684,18.625,4.8125,-2.9375,-0.136108,0.38678,-0.907837,0.0882568,-0.830359,-0.179824,-2.86836
0.194824,-0.812012,0.69873,8.3125,4.375,-5.6875,-0.135742,0.385803,-0.908386,0.0872803,-0.827926,-0.180241,-2.87068
0.192871,-0.719727,0.692871,12.1875,7.625,-4.375,-0.134705,0.383606,-0.909546,0.0863037,-0.822536,-0.179794,-2.87381
0.212891,-0.744629,0.700195,10.625,3.375,-5.5,-0.134705,0.381775,-0.9104,0.0853271,-0.818413,-0.181107,-2.87597
0.26123,-0.775391,0.725586,4.8125,3.25,-1.5625,-0.134949,0.38092,-0.910828,0.0846558,-0.816592,-0.182345,-2.87721
0.209961,-0.746582,0.683105,4.3125,7.9375,-3.4375,-0.134094,0.380371,-0.911255,0.0835571,-0.814855,-0.181823,-2.88008
0.160156,-0.729004,0.692383,3.625,2.25,-7.8125,-0.133911,0.379639,-0.911682,0.0823975,-0.813016,-0.18262,-2.88253
0.177246,-0.774902,0.730957,3.4375,-5.5,-11.875,-0.135315,0.378845,-0.911926,0.0810547,-0.81171,-0.186459,-2.88399
0.167969,-0.702148,0.773438,5.125,-8.6875,-5.5,-0.136475,0.377014,-0.912537,0.0809937,-0.808233,-0.18913,-2.88348
0.15918,-0.704102,0.713867,-11.625,-16.1875,-11.8125,-0.139526,0.377991,-0.911743,0.0800781,-0.811562,-0.195123,-2.88235
0.129395,-0.770996,0.717285,-47.1875,-27.4375,-34.875,-0.145813,0.384399,-0.908447,0.0756226,-0.827701,-0.208291,-2.88374
0.232422,-0.73877,0.709473,-60.8125,-35.625,-33.8125,-0.154419,0.392151,-0.904053,0.071106,-0.84802,-0.225339,-2.88255
0.272461,-0.694336,0.650879,-65.0625,-33.3125,-20.5,-0.16217,0.400818,-0.89917,0.0681152,-0.870516,-0.239312,-2.87873
0.285645,-0.696777,0.599609,-89.1875,-37.25,-20.5,-0.170898,0.413208,-0.892151,0.0646973,-0.902038,-0.254196,-2.87322
0.333496,-0.709961,0.556152,-104.313,-31.3125,-25.9375,-0.179016,0.428101,-0.88385,0.0596924,-0.9391,-0.268555,-2.86989
0.409668,-0.697754,0.47168,-109.688,-18.25,-25,-0.185181,0.443848,-0.875122,0.0535278,-0.977336,-0.280249,-2.86971
0.43457,-0.747559,0.399902,-119.563,-9.75,-13.8125,-0.189331,0.461487,-0.865356,0.0480347,-1.01944,-0.287278,-2.86932
0.460449,-0.938965,0.366211,-74.4375,11.625,-30.25,-0.192444,0.473022,-0.858887,0.0392456,-1.04667,-0.29783,-2.87758
0.400879,-0.861816,0.322754,-21.75,25.3125,-16.625,-0.191711,0.477112,-0.857056,0.0333862,-1.05476,-0.301295,-2.8874
0.400879,-0.728516,0.362305,-16.5625,41.625,-22.125,-0.188904,0.479248,-0.85675,0.0252075,-1.05658,-0.304195,-2.90434
0.30957,-0.740234,0.384766,-10.4375,48.6875,-19.8125,-0.183838,0.48053,-0.8573,0.0175781,-1.05521,-0.302927,-2.92316
0.324707,-0.782715,0.390625,-25.125,52.8125,-20.5,-0.178345,0.48407,-0.856628,0.00897217,-1.05892,-0.301407,-2.9434
0.327637,-0.84082,0.381348,-41.3125,63.8125,-11.1875,-0.17041,0.490601,-0.854553,0.000427246,-1.0686,-0.295094,-2.96515
0.270508,-0.834473,0.414551,-47.3125,69,-5.5,-0.160583,0.497742,-0.852295,-0.00769043,-1.07923,-0.285237,-2.98806
0.273438,-0.831055,0.439941,-59.6875,71.8125,-8.375,-0.150574,0.506165,-0.84906,-0.0169067,-1.09317,-0.27631,-3.01265
0.160156,-0.970703,0.447754,-57.9375,78.625,7.5,-0.136902,0.515137,-0.845825,-0.0234375,-1.10782,-0.25861,-3.03653
0.0566406,-0.9375,0.491211,-40.3125,71.3125,2.1875,-0.123901,0.520691,-0.844177,-0.0292358,-1.11532,-0.24199,-3.05943
0.115723,-0.949219,0.493164,-29.5625,69.3125,-0.9375,-0.112244,0.524475,-0.843262,-0.0355225,-1.11966,-0.228547,-3.08219
0.213867,-0.843262,0.516602,-36.875,58.875,-1.875,-0.103394,0.528381,-0.841675,-0.0419312,-1.12561,-0.220132,-3.10195
0.0786133,-1.02148,0.552734,-20.3125,62.5,1.3125,-0.0922241,0.530396,-0.841431,-0.046875,-1.1269,-0.206387,-3.12224
0.111816,-0.927246,0.526855,-19.125,47.0625,6.25,-0.0834961,0.532104,-0.841064,-0.0501099,-1.12863,-0.195012,-3.13694
0.0849609,-1.02002,0.474121,-20.25,39.75,5.5625,-0.0756836,0.534912,-0.839905,-0.0524292,-1.13356,-0.184265,3.13437
0.0849609,-0.893555,0.457031,-2.4375,27.125,6.4375,-0.0701294,0.53479,-0.840393,-0.0535278,-1.13215,-0.176033,3.1264
0.154785,-0.973145,0.464844,-13.75,29.4375,4.375,-0.0649414,0.536438,-0.8396,-0.055603,-1.13505,-0.169515,3.11755
0.15918,-0.932617,0.455078,-6.375,37.1875,10.125,-0.0584106,0.536926,-0.839661,-0.0576172,-1.13513,-0.160653,3.10711
0.0732422,-0.859375,0.428223,-7.375,23.25,7.9375,-0.0534058,0.537598,-0.839539,-0.0582275,-1.13607,-0.152873,3.10076
0.0493164,-0.865723,0.476563,2.25,14.875,-12,-0.0513306,0.536316,-0.840271,-0.060791,-1.13255,-0.152055,3.09392
0.218262,-1.00684,0.476074,6.1875,11.6875,-21.3125,-0.052063,0.535095,-0.840698,-0.0652466,-1.12937,-0.158022,3.0869
0.26123,-0.952148,0.51416,18.8125,15.5,-8.875,-0.0517578,0.531555,-0.842712,-0.0684204,-1.12062,-0.160663,3.08048
0.183594,-0.854004,0.489746,7.625,11.6875,-2.9375,-0.0505981,0.529541,-0.843872,-0.0700684,-1.11555,-0.16029,3.07604
0.199219,-0.879395,0.478027,-7.375,6,-3.625,-0.050354,0.53009,-0.843445,-0.0715332,-1.11672,-0.161481,3.07338
0.198242,-0.933105,0.420898,-18.3125,7.5625,-2.75,-0.0495605,0.532898,-0.841614,-0.072937,-1.12324,-0.161864,3.07067
0.127441,-0.919434,0.421387,-2.25,5.4375,-2.125,-0.048584,0.533325,-0.84137,-0.0735474,-1.12413,-0.160897,3.06866
0.126953,-0.93457,0.428711,10.4375,3.25,-10.875,-0.0488281,0.53186,-0.842102,-0.0750732,-1.1205,-0.162812,3.06603
0.168945,-0.929199,0.463867,17,0.625,-15.0625,-0.050293,0.529114,-0.843567,-0.0771484,-1.1139,-0.16727,3.06349
0.228516,-0.905273,0.481445,15.875,1.5625,-12.5,-0.0519409,0.526367,-0.844971,-0.0793457,-1.1073,-0.172156,3.06091
0.185059,-0.884766,0.467773,4.75,-1.375,-3.0625,-0.0525513,0.525452,-0.845459,-0.0797119,-1.10513,-0.173499,3.06073
0.150391,-0.879883,0.480469,4.6875,-4.4375,-3.625,-0.0533447,0.524414,-0.846069,-0.0796509,-1.10275,-0.174694,3.06146
0.214844,-0.897949,0.475586,4.375,-2.6875,-4.875,-0.0546265,0.523621,-0.846436,-0.0803223,-1.10092,-0.177523,3.06149
0.225586,-0.882813,0.447266,2,1.4375,-1.875,-0.0550537,0.523254,-0.846558,-0.0809937,-1.10002,-0.178926,3.0607
0.194336,-0.899414,0.443359,-1.4375,3.1875,1.0625,-0.0546265,0.52356,-0.846375,-0.0812378,-1.10068,-0.178481,3.0599
0.180176,-0.893555,0.459961,2.9375,6.875,0.375,-0.0535889,0.522949,-0.846741,-0.0817871,-1.09908,-0.177219,3.05773
0.179688,-0.92627,0.463379,9.0625,4.8125,-1.6875,-0.0531006,0.521667,-0.847534,-0.0823364,-1.09595,-0.176834,3.056
0.188477,-0.914063,0.458008,9.25,-0.6875,3.4375,-0.0531006,0.520447,-0.848328,-0.0817261,-1.0931,-0.17607,3.0568
0.17334,-0.880859,0.461426,8.5,-0.8125,4.0625,-0.0529785,0.519226,-0.849182,-0.0809326,-1.09029,-0.174912,3.05779
0.188477,-0.871582,0.470215,8.9375,0.6875,1.75,-0.0529785,0.517761,-0.850037,-0.0807495,-1.08681,-0.174571,3.0578
0.200195,-0.852539,0.478027,2.375,2.8125,0.3125,-0.0528564,0.51709,-0.850464,-0.0811157,-1.0852,-0.17468,3.0569
0.188965,-0.885742,0.478027,-4.5,3.4375,0.375,-0.0523682,0.517639,-0.850098,-0.081543,-1.0864,-0.174338,3.05577
0.172852,-0.896484,0.466797,-3.125,2.9375,0.5,-0.0517578,0.518066,-0.849854,-0.0817261,-1.08735,-0.173522,3.0549
0.193359,-0.877441,0.474609,-5.3125,5.375,0.8125,-0.0510254,0.518616,-0.849487,-0.0822754,-1.08853,-0.172889,3.0533
0.18457,-0.869629,0.447754,-10,5.1875,-2.1875,-0.0504761,0.52002,-0.848572,-0.083252,-1.09172,-0.173114,3.05132
0.176758,-0.910156,0.46875,-12.8125,3.625,-0.375,-0.0497437,0.521851,-0.847473,-0.0837402,-1.09598,-0.172568,3.05009
0.161133,-0.912109,0.460449,-8.4375,1.0625,0.25,-0.0492554,0.523132,-0.84668,-0.0837402,-1.09897,-0.171866,3.04984
0.175293,-0.904785,0.458496,-1.75,2.25,-0.8125,-0.0489502,0.523376,-0.846558,-0.0841064,-1.09951,-0.17176,3.04895
0.15332,-0.90332,0.449219,-1.0625,-0.0625,1,-0.048645,0.523621,-0.846436,-0.0838013,-1.10009,-0.170941,3.0492
0.166504,-0.889648,0.467773,2.875,-1.75,2.3125,-0.0487061,0.523132,-0.846802,-0.083252,-1.09899,-0.170416,3.05011
0.194336,-0.876465,0.460449,1.75,-2.0625,0.5,-0.0491943,0.522766,-0.846985,-0.0831299,-1.09816,-0.171082,3.05076
0.196777,-0.894531,0.462891,-0.875,-2.125,1.5625,-0.0496216,0.522888,-0.846924,-0.0828857,-1.09851,-0.171572,3.05165
0.184082,-0.908203,0.463379,2,-1,2.25,-0.0496826,0.522644,-0.847107,-0.0824585,-1.09797,-0.171201,3.05241
0.166992,-0.899902,0.459961,3.125,-1.1875,3.125,-0.0494995,0.522217,-0.847473,-0.0818481,-1.09702,-0.170205,3.05318
0.17334,-0.898926,0.457031,0.625,0.1875,3,-0.0492554,0.522156,-0.847534,-0.0814209,-1.09688,-0.169328,3.05365
0.178711,-0.895996,0.456543,-2.0625,-0.9375,2.75,-0.0491943,0.522522,-0.847351,-0.0809937,-1.09778,-0.168812,3.0544
0.189941,-0.899902,0.463867,-0.6875,-0.3125,2.1875,-0.0491943,0.522583,-0.847351,-0.0807495,-1.09795,-0.168564,3.05483
0.192383,-0.894043,0.469238,2.125,1.8125,2.3125,-0.0489502,0.522156,-0.847595,-0.0806885,-1.09691,-0.168033,3.05459
0.173828,-0.885742,0.469727,-0.375,2.5625,1.75,-0.0484619,0.522034,-0.847717,-0.0807495,-1.09659,-0.167251,3.05395
0.15918,-0.89209,0.466309,-6,1.8125,1.375,-0.0479126,0.522827,-0.84729,-0.0806885,-1.09845,-0.16633,3.05364
0.157227,-0.93457,0.455078,-8.375,1.1875,2.625,-0.0471802,0.524231,-0.846497,-0.0803833,-1.10176,-0.164901,3.05368
0.155273,-0.928711,0.458008,-1.6875,-2.6875,3.4375,-0.0470581,0.524658,-0.846313,-0.0795288,-1.10284,-0.163835,3.0551
0.184082,-0.886719,0.463379,3.3125,-4.3125,0.6875,-0.0478516,0.524048,-0.84668,-0.0791016,-1.10148,-0.164679,3.05655
0.191406,-0.882813,0.455078,-1.4375,-0.75,0,-0.0482178,0.524231,-0.846558,-0.0792236,-1.10194,-0.165455,3.05677
0.166992,-0.899414,0.45459,-5.0625,-0.875,0.5,-0.0482178,0.524963,-0.846069,-0.0791016,-1.10367,-0.165395,3.05712
0.176758,-0.896484,0.450684,-3.375,-1.6875,-0.125,-0.0485229,0.525452,-0.845764,-0.0791016,-1.10486,-0.165967,3.05754
0.175781,-0.895996,0.44873,-2.375,-1.3125,-0.625,-0.0488281,0.525818,-0.84552,-0.0791016,-1.10576,-0.166525,3.05793
0.180176,-0.907715,0.449219,-2.4375,-0.4375,-0.5,-0.0490112,0.526245,-0.845215,-0.0792236,-1.10677,-0.167007,3.058
0.158203,-0.902344,0.45166,-1.125,0,-0.1875,-0.0488892,0.526367,-0.845154,-0.0792236,-1.10705,-0.166812,3.05789
0.163086,-0.904785,0.446777,-2.8125,-0.0625,0.5,-0.0487061,0.526855,-0.84491,-0.0791016,-1.10823,-0.166422,3.05801
0.168945,-0.92041,0.451172,-3.6875,-1.625,-0.1875,-0.0488892,0.527466,-0.844482,-0.0789795,-1.10968,-0.16666,3.05853
0.174805,-0.911621,0.452637,0.3125,-3,-0.5625,-0.0494385,0.527466,-0.844482,-0.0787964,-1.10975,-0.167405,3.05943
0.181152,-0.891602,0.450195,1.75,-2.9375,-1,-0.0501099,0.527161,-0.844666,-0.0787354,-1.1091,-0.16846,3.06018
0.176758,-0.88916,0.446289,0.375,-2.0625,-1.125,-0.0505981,0.527039,-0.844666,-0.0787964,-1.10882,-0.169343,3.06057
0.182129,-0.890625,0.446289,-1.125,-1.6875,-1.8125,-0.0510864,0.527222,-0.844543,-0.0789795,-1.1093,-0.170392,3.06081
0.187988,-0.906738,0.443848,-3.6875,-1,-1.5625,-0.0514526,0.527771,-0.844116,-0.0792236,-1.1106,-0.171325,3.06089
0.166992,-0.910645,0.439453,-1.9375,0,0.1875,-0.0513306,0.528137,-0.843933,-0.0791626,-1.11148,-0.17109,3.06094
0.174805,-0.900391,0.446777,-0.0625,-0.4375,0.75,-0.0513306,0.528137,-0.843933,-0.0791626,-1.11148,-0.17109,3.06094
0.180664,-0.895508,0.44043,-0.0625,-0.0625,-0.9375,-0.0513306,0.528137,-0.843933,-0.0791626,-1.11148,-0.17109,3.06094
0.191406,-0.909668,0.45166,0,1.875,-0.25,-0.0512695,0.528076,-0.843933,-0.0794678,-1.1113,-0.171303,3.06034
0.166992,-0.904297,0.449219,-1.4375,2.375,1,-0.0507202,0.528259,-0.843872,-0.0795288,-1.1117,-0.170451,3.05969
0.178223,-0.905273,0.452637,-1.3125,0.5625,-0.1875,-0.0507202,0.528381,-0.84375,-0.0796509,-1.11196,-0.170589,3.0595
0.186035,-0.904785,0.458496,-0.3125,0.5,-0.6875,-0.0507202,0.528381,-0.84375,-0.0796509,-1.11196,-0.170589,3.0595
0.171875,-0.903809,0.450195,-0.25,0.4375,-1.1875,-0.0507202,0.52832,-0.84375,-0.079895,-1.11178,-0.170841,3.05907
0.173828,-0.909668,0.452148,1.0625,-0.625,-1.5625,-0.0509644,0.528137,-0.843872,-0.0800171,-1.11137,-0.171372,3.05908
0.174805,-0.901367,0.444824,1.3125,-1.75,-2.4375,-0.0514526,0.527954,-0.843933,-0.0802002,-1.11096,-0.172382,3.05925
0.185547,-0.894043,0.437988,1.625,-0.5,-2.375,-0.0518799,0.527771,-0.843994,-0.0805664,-1.11053,-0.173483,3.05904
0.180176,-0.903809,0.434082,1.125,-0.125,-1.3125,-0.052063,0.52771,-0.843994,-0.0807495,-1.11038,-0.173983,3.0589
0.17627,-0.900879,0.439453,3.1875,-0.0625,-0.6875,-0.0521851,0.527283,-0.844238,-0.0808105,-1.10936,-0.174213,3.05884
0.181152,-0.902344,0.448242,5.9375,-0.5,-0.375,-0.0524292,0.526428,-0.844788,-0.0808105,-1.10736,-0.17455,3.05892
0.176758,-0.894043,0.446777,8.625,-0.25,0.5625,-0.0525513,0.525208,-0.845581,-0.0806274,-1.10449,-0.174448,3.05911
0.186035,-0.887207,0.453613,8.3125,-0.625,-0.5625,-0.0529175,0.523926,-0.846313,-0.0806274,-1.10146,-0.174946,3.05923
0.184082,-0.874512,0.462891,5.5625,-1.0625,-1.6875,-0.0533447,0.522949,-0.846863,-0.0808105,-1.09915,-0.175775,3.05916
0.192871,-0.896484,0.467285,-3.875,-4.1875,-1,-0.0541382,0.523438,-0.846558,-0.0806885,-1.10041,-0.177057,3.06031
0.1875,-0.913574,0.446289,-6.3125,-4.0625,1.1875,-0.0546265,0.524536,-0.845825,-0.0802002,-1.10309,-0.177475,3.06189
0.169434,-0.902832,0.461426,0.9375,-2.8125,0.1875,-0.0548706,0.524414,-0.845947,-0.079895,-1.10286,-0.177563,3.06265
0.169922,-0.882324,0.462891,0.25,-0.3125,1.375,-0.0547485,0.524231,-0.84613,-0.0795898,-1.10246,-0.177019,3.06301
0.184082,-0.874512,0.465332,-6.0625,-0.125,1.125,-0.0546265,0.524902,-0.845703,-0.0795288,-1.10404,-0.176805,3.06313
0.191406,-0.900391,0.46875,-5.375,-0.8125,1.625,-0.0546265,0.525574,-0.845337,-0.0793457,-1.10567,-0.176677,3.06359
0.181641,-0.90332,0.454102,-3.125,0,1.5625,-0.0544434,0.526001,-0.845032,-0.0791626,-1.10666,-0.176202,3.06379
0.163086,-0.908203,0.454102,-1.5,-0.5,1.5,-0.0541992,0.526245,-0.844971,-0.0787964,-1.10727,-0.175424,3.06422
0.178223,-0.910645,0.443359,-1.75,0.1875,1.1875,-0.0540161,0.526611,-0.844788,-0.0786743,-1.10815,-0.175018,3.06432
0.183594,-0.900391,0.438477,-1.8125,0.1875,0.625,-0.0539551,0.526917,-0.844543,-0.0786133,-1.10884,-0.17487,3.06441
0.182617,-0.928711,0.453125,-6.6875,0.5625,0.5,-0.053772,0.527954,-0.843933,-0.0786743,-1.11131,-0.17472,3.06433
0.184082,-0.905273,0.440918,-6.4375,0.1875,-0.4375,-0.053772,0.528931,-0.843323,-0.0788574,-1.11363,-0.175006,3.06422
0.182617,-0.904785,0.446777,-4.875,-1.0625,-0.8125,-0.0539551,0.529602,-0.842834,-0.0789185,-1.11522,-0.17544,3.06445
0.179688,-0.907715,0.438477,-5.0625,-1.25,-1.625,-0.0541992,0.530396,-0.842346,-0.0791016,-1.11714,-0.176128,3.06457
0.178223,-0.907227,0.431152,-2.625,-2.125,-2.1875,-0.0546875,0.530884,-0.84198,-0.0792236,-1.11834,-0.177133,3.06498
0.187012,-0.904297,0.43457,-1.1875,-1.625,-1.8125,-0.0551147,0.531128,-0.841797,-0.0794067,-1.11896,-0.178081,3.06518
0.182617,-0.890625,0.428711,-0.25,-1.1875,-0.0625,-0.0553589,0.531189,-0.841736,-0.0793457,-1.11913,-0.178436,3.06556
0.188477,-0.906738,0.424805,-1.9375,0.125,-0.625,-0.0554199,0.531555,-0.841492,-0.0794678,-1.12,-0.178703,3.06549
0.183594,-0.906738,0.421875,-0.1875,1.4375,0.5,-0.0552368,0.531738,-0.84137,-0.0795898,-1.12041,-0.178538,3.06512
0.179199,-0.903809,0.437012,-0.5,3.25,1.625,-0.0545654,0.531738,-0.84137,-0.0796509,-1.12031,-0.177456,3.0643
0.17627,-0.912598,0.435547,-2,3.3125,1.0625,-0.053894,0.532043,-0.841248,-0.0797729,-1.12099,-0.176476,3.06344
0.177246,-0.913574,0.444824,-0.9375,2.6875,0.75,-0.0534058,0.532104,-0.841187,-0.079895,-1.12105,-0.175777,3.06271
0.180664,-0.910645,0.446777,-0.875,2.25,0.375,-0.0530396,0.532166,-0.841187,-0.0800781,-1.12116,-0.175359,3.06202
0.186523,-0.917969,0.448242,-0.75,1.75,-0.5,-0.0528564,0.532166,-0.841187,-0.0803833,-1.12113,-0.175376,3.06131
0.176758,-0.916016,0.448242,-1.5625,0.4375,-1.0625,-0.0528564,0.532288,-0.841064,-0.0805664,-1.12139,-0.175581,3.06102
0.183105,-0.907715,0.443359,0.0625,-0.125,-1.875,-0.0530396,0.532227,-0.841064,-0.0808105,-1.12124,-0.176148,3.06078
0.178711,-0.898438,0.445313,-2.5,-0.25,-0.4375,-0.0531006,0.532471,-0.840881,-0.0809326,-1.12181,-0.176405,3.06069
0.178711,-0.898926,0.439941,-3.0625,0.0625,-0.375,-0.0531006,0.532837,-0.840698,-0.0809937,-1.12271,-0.176511,3.06066
0.181641,-0.912109,0.437012,-2.5625,0.3125,-1.0625,-0.0531006,0.533203,-0.840393,-0.0812378,-1.12354,-0.176803,3.06032
0.182129,-0.917969,0.429199,-2.125,0.6875,-0.75,-0.0530396,0.533569,-0.840149,-0.0814209,-1.12439,-0.176931,3.06002
0.17627,-0.915039,0.430176,1.375,-0.625,-0.375,-0.0531616,0.533447,-0.840271,-0.0813599,-1.12414,-0.177067,3.06023
0.185059,-0.894531,0.4375,2.875,-0.8125,0.5,-0.0533447,0.532959,-0.840576,-0.0812378,-1.123,-0.177199,3.06053
0.176758,-0.890625,0.435059,1,0.25,-0.125,-0.0533447,0.532715,-0.840698,-0.0812988,-1.12239,-0.177238,3.06037
0.186035,-0.895996,0.435547,-1.25,1.0625,-1.1875,-0.0533447,0.532837,-0.840576,-0.081604,-1.12265,-0.177576,3.05988
0.184082,-0.90918,0.429199,-2.1875,1.75,-1,-0.0531616,0.533203,-0.840332,-0.0819702,-1.12348,-0.177694,3.05913
0.186035,-0.915039,0.439941,-0.5,0.75,-0.625,-0.0531616,0.533203,-0.840332,-0.0819702,-1.12348,-0.177694,3.05913
0.186035,-0.912109,0.441406,-0.3125,0.375,-0.4375,-0.0532227,0.533142,-0.840393,-0.0819702,-1.12335,-0.177795,3.05919
0.174805,-0.925781,0.451172,1.3125,0.375,0.6875,-0.0529785,0.532898,-0.840576,-0.0818481,-1.12276,-0.177225,3.05908
0.175293,-0.929688,0.442383,2.625,-0.75,0.75,-0.0529785,0.532593,-0.840759,-0.081604,-1.12203,-0.176929,3.05943
0.194336,-0.910156,0.449219,3.1875,-3.125,0.25,-0.0535889,0.532043,-0.841125,-0.0812988,-1.12082,-0.177591,3.06049
0.188965,-0.909668,0.461426,1,-5.5625,1,-0.0543823,0.531799,-0.841309,-0.0806885,-1.12038,-0.178267,3.06234
0.160645,-0.878906,0.499023,12.375,-6.4375,-4.75,-0.0556641,0.529358,-0.842712,-0.0806274,-1.11464,-0.180152,3.06328
0.164063,-0.916992,0.467773,-5.5,-7.5625,-5.4375,-0.0569458,0.530029,-0.842224,-0.0806274,-1.11639,-0.182402,3.0648
0.174805,-0.955078,0.484375,-11.9375,-13.6875,-8.5625,-0.0593262,0.531677,-0.841003,-0.0805664,-1.12059,-0.186538,3.06782
0.186523,-0.954102,0.5,-1.9375,-18.875,-8.4375,-0.062561,0.531799,-0.84082,-0.0800171,-1.12135,-0.191479,3.07227
0.175781,-0.913574,0.500977,-6.375,-22.0625,-16.375,-0.0668945,0.532227,-0.840149,-0.0802612,-1.1229,-0.199151,3.07661
0.187988,-0.892578,0.484375,-21.625,-22.5625,-25.625,-0.0719604,0.534851,-0.837891,-0.0820923,-1.12976,-0.209943,3.07961
0.206543,-0.898926,0.438965,-35.375,-26.625,-30.75,-0.0780029,0.539734,-0.833984,-0.0844727,-1.14231,-0.223139,3.08343
0.259766,-0.913086,0.404297,-33.8125,-28.625,-23.625,-0.0841064,0.544678,-0.830017,-0.0858154,-1.15533,-0.235267,3.0893
0.283203,-0.956055,0.365723,-15.1875,-24.1875,-13.5625,-0.0889893,0.547424,-0.827698,-0.0858154,-1.16307,-0.243672,3.09559
0.250977,-0.920898,0.337891,-0.375,-12,-11.75,-0.0918579,0.548035,-0.826904,-0.0863037,-1.16514,-0.249078,3.09819
0.246094,-0.86377,0.289551,4.625,-10.8125,-11.8125,-0.0947876,0.548096,-0.826477,-0.086853,-1.16591,-0.25463,3.1006
0.250488,-0.922852,0.321777,5.75,-9.875,-8.0625,-0.0970459,0.547974,-0.826355,-0.086853,-1.16618,-0.258442,3.10313
0.220215,-0.950195,0.368164,2,-11.6875,-1.5,-0.0983887,0.548157,-0.826172,-0.0855103,-1.16712,-0.259211,3.107
0.206543,-0.947754,0.396484,2.3125,-13.5625,9.375,-0.098877,0.54834,-0.826294,-0.0824585,-1.16807,-0.256641,3.11281
0.204102,-0.964355,0.39502,6.3125,-14.375,13.8125,-0.0991211,0.548035,-0.826843,-0.0784912,-1.16787,-0.252626,3.11974
0.228027,-0.984375,0.417969,9.8125,-12.0625,17.3125,-0.098877,0.547119,-0.827881,-0.0744019,-1.16606,-0.247654,3.12612
0.220215,-0.972168,0.424805,13.125,-11.6875,21.75,-0.0982666,0.545715,-0.829285,-0.0696411,-1.16303,-0.241326,3.13309
0.210938,-0.9375,0.421875,13.625,-13.375,20.0625,-0.0980835,0.544189,-0.830688,-0.0650635,-1.15979,-0.235951,3.14021
0.15625,-0.962891,0.406738,9.25,-14.75,27.9375,-0.0968018,0.54364,-0.831665,-0.0588379,-1.15882,-0.226929,-3.13402
0.194824,-0.973633,0.416504,12.3125,-16.8125,29.8125,-0.0961304,0.542664,-0.832825,-0.0524292,-1.15697,-0.218763,-3.12417
0.207031,-0.982422,0.419922,19.125,-17.25,33.5625,-0.095459,0.54071,-0.834534,-0.0454712,-1.15276,-0.210042,-3.11364
0.193848,-0.943848,0.424316,29.1875,-17.3125,38.375,-0.0944214,0.537292,-0.83728,-0.0376587,-1.14503,-0.199911,-3.1024
0.183594,-0.912598,0.442383,29.3125,-17.3125,42.1875,-0.0930786,0.533569,-0.840088,-0.0293579,-1.1365,-0.188838,-3.09066
0.15332,-0.90625,0.434082,23.8125,-13.125,43.125,-0.0908203,0.530823,-0.842346,-0.0212402,-1.13009,-0.176468,-3.07996
0.131348,-0.93457,0.440918,20.875,-12.75,47,-0.0880127,0.528564,-0.844238,-0.0125732,-1.12472,-0.162615,-3.06876
0.108398,-0.935547,0.446777,25.6875,-12.3125,48.875,-0.0848999,0.525696,-0.846436,-0.00354004,-1.11782,-0.147986,-3.05731
0.0874023,-0.924805,0.453125,25.625,-13.875,47.3125,-0.0820923,0.522644,-0.848572,0.00543213,-1.11052,-0.134045,-3.04556
0.0375977,-0.918945,0.446777,19.125,-16.125,48.875,-0.0791626,0.520691,-0.849976,0.0149536,-1.10582,-0.119283,-3.03276
0.0244141,-0.949219,0.416016,18.0625,-16.875,52.5,-0.0759888,0.519348,-0.85083,0.0250854,-1.10245,-0.103435,-3.01903
-0.00878906,-0.942383,0.432129,17.4375,-15,54.4375,-0.0722656,0.517944,-0.851624,0.0354004,-1.09874,-0.0865233,-3.00551
-0.0537109,-0.937988,0.474609,11.0625,-19.9375,65.5625,-0.0679321,0.517151,-0.851868,0.0478516,-1.09632,-0.066294,-2.98889
-0.0576172,-0.996582,0.490723,12.8125,-27.75,78,-0.0637817,0.516174,-0.851807,0.0627441,-1.09344,-0.0438997,-2.96782
-0.0708008,-0.98877,0.436035,13.625,-27.8125,82.3125,-0.0594482,0.515564,-0.851196,0.078186,-1.0912,-0.0205859,-2.9459
-0.0888672,-0.9375,0.405273,20.0625,-26.3125,89.75,-0.0541992,0.513977,-0.850891,0.0946045,-1.0863,0.00501383,-2.92318
-0.0776367,-0.89502,0.411133,21.3125,-24.1875,94.375,-0.048584,0.511902,-0.850464,0.111206,-1.07991,0.0312204,-2.90027
-0.0737305,-0.893066,0.433105,19.1875,-26.75,101.875,-0.0430298,0.509399,-0.849731,0.128845,-1.07227,0.0581726,-2.87519
-0.0727539,-0.922852,0.416016,17.3125,-30,104.375,-0.0378418,0.50708,-0.84845,0.147034,-1.06488,0.0850043,-2.84852
-0.0844727,-0.88916,0.395508,13.5625,-30.75,102.75,-0.03302,0.505066,-0.846497,0.164978,-1.05794,0.110975,-2.82153
-0.0581055,-0.850098,0.400879,13.625,-35.9375,104.625,-0.0289307,0.502686,-0.844299,0.183533,-1.05005,0.136086,-2.79241
-0.0698242,-0.83252,0.402344,9.9375,-38.125,103.688,-0.0253296,0.50061,-0.841431,0.202026,-1.04264,0.160333,-2.76254
-0.112793,-0.850586,0.364258,0.3125,-39.5,100.125,-0.022583,0.499756,-0.837463,0.219971,-1.03799,0.183059,-2.73264
-0.11377,-0.800293,0.385742,-4.8125,-44.0625,90.9375,-0.0220947,0.499756,-0.832947,0.236511,-1.03588,0.200938,-2.70302
-0.0810547,-0.796387,0.37207,-18.4375,-47.4375,88.5,-0.0233154,0.501404,-0.827209,0.252563,-1.038,0.216384,-2.67287
-0.059082,-0.836914,0.352539,-28.375,-46.375,96.25,-0.0245972,0.5047,-0.819885,0.269226,-1.04374,0.23354,-2.64175
-0.0859375,-0.853027,0.347168,-28.5625,-39.3125,91.25,-0.0252686,0.50824,-0.8125,0.284424,-1.0499,0.250666,-2.61382
-0.118652,-0.902832,0.378906,-26.8125,-38.4375,88.3125,-0.0259399,0.511292,-0.805298,0.299072,-1.0549,0.267216,-2.58668
-0.11377,-0.84668,0.370117,-15.5,-35.375,75.9375,-0.0266113,0.512573,-0.799622,0.311707,-1.05597,0.280657,-2.56259
-0.0761719,-0.826172,0.39502,-16.125,-27.5,66.25,-0.0274658,0.513794,-0.794678,0.322083,-1.05729,0.291423,-2.54247
-0.102539,-0.893066,0.445801,-15.8125,-26.8125,65.5,-0.0283813,0.514832,-0.789795,0.332214,-1.05819,0.301799,-2.52261
-0.143555,-0.860352,0.544434,1.1875,-36.875,55,-0.0300903,0.511902,-0.787292,0.342346,-1.05007,0.30796,-2.50057
-0.101074,-0.786621,0.534668,-9.125,-36.625,37.625,-0.0340576,0.509949,-0.785034,0.349976,-1.04578,0.308329,-2.48152
-0.0742188,-0.86084,0.52832,-31.75,-31.875,37.0625,-0.0394287,0.511597,-0.780762,0.356567,-1.05086,0.308121,-2.46438
-0.165039,-0.961426,0.577148,-21.5625,-26.375,26,-0.0438232,0.512268,-0.777832,0.36145,-1.05362,0.306942,-2.45105
-0.17627,-0.881348,0.628906,-13.25,-17.625,9.6875,-0.0474243,0.511475,-0.776978,0.363831,-1.05311,0.303105,-2.44278
-0.140137,-0.887207,0.555664,-50.5625,-2.75,16.0625,-0.0512085,0.517212,-0.7724,0.365112,-1.0682,0.303198,-2.43869
-0.269531,-0.786621,0.570313,-31.125,5.875,1.0625,-0.0523071,0.520386,-0.770325,0.364746,-1.07623,0.303676,-2.4393
-0.288574,-0.902832,0.479004,-45,5.25,-9.4375,-0.055542,0.526489,-0.767029,0.362488,-1.09265,0.301012,-2.44255
-0.256836,-0.838867,0.414551,-49,-3.875,-7.75,-0.0601807,0.532654,-0.763062,0.361145,-1.10983,0.297245,-2.4426
-0.307129,-0.904297,0.385254,-28.25,-5.25,-17.1875,-0.064209,0.536377,-0.761169,0.358948,-1.12113,0.291422,-2.44403
-0.248535,-0.863281,0.384277,-19.25,-2.9375,-10.4375,-0.0671387,0.538757,-0.759949,0.357361,-1.12856,0.286939,-2.44483
-0.228516,-0.864746,0.357422,-23.8125,7.75,-4.4375,-0.0685425,0.542603,-0.757996,0.355408,-1.13874,0.285649,-2.44828
-0.248047,-0.885742,0.36084,-32.875,17,6.0625,-0.0681763,0.548279,-0.7547,0.353882,-1.15235,0.289159,-2.45331
-0.310547,-0.901855,0.410156,-39,19.3125,14.875,-0.0664673,0.554565,-0.750305,0.353638,-1.1666,0.296829,-2.45739
-0.375,-1.84668,0.375488,-8.5,-16.5,13.5,-0.0705566,0.557983,-0.747009,0.354492,-1.17682,0.294424,-2.45268
-0.419922,-0.626953,0.316406,8.6875,-11.75,-15.75,-0.0709839,0.555969,-0.74823,0.35498,-1.17209,0.292651,-2.45068
-0.15918,-0.771484,0.39209,-23.4375,-6.75,-0.4375,-0.0740967,0.557678,-0.746643,0.35498,-1.17783,0.289301,-2.44798
-0.37207,-1.10156,0.306641,-19.5,-4.0625,1.9375,-0.0756836,0.56134,-0.743713,0.355103,-1.18752,0.290147,-2.44728
-0.342773,-0.935059,0.402344,17,-3.0625,-1.625,-0.0747681,0.558838,-0.745361,0.355713,-1.18088,0.290168,-2.44627
-0.334473,-0.811035,0.389648,8.125,-4.25,-7.5,-0.0747681,0.557129,-0.746643,0.355774,-1.17676,0.28877,-2.44568
-0.279297,-0.905273,0.413574,-11.625,-5.1875,-2.625,-0.0764771,0.557861,-0.74585,0.355835,-1.1794,0.28685,-2.44395
-0.20459,-0.973633,0.411133,-20.125,4.3125,1.5625,-0.0779419,0.560364,-0.744324,0.354797,-1.18638,0.285464,-2.44514
-0.273438,-0.968262,0.379395,-16.8125,18.9375,5.9375,-0.0762939,0.563721,-0.742676,0.353271,-1.19387,0.288975,-2.45073
-0.310547,-0.869141,0.354492,-21.6875,22.5,5.625,-0.0738525,0.567871,-0.74054,0.351746,-1.20297,0.294343,-2.45752
-0.301758,-0.869141,0.353027,-22.125,18,4.25,-0.0722656,0.571655,-0.738403,0.350403,-1.21163,0.298301,-2.46289
-0.315918,-0.910156,0.318848,-16.75,11.875,-2.5625,-0.0718994,0.574646,-0.736877,0.348694,-1.21904,0.299235,-2.46735
-0.303223,-0.958008,0.314941,-12.9375,9.625,-3.3125,-0.0718994,0.577148,-0.735779,0.346985,-1.22549,0.299162,-2.47139
-0.310547,-0.935059,0.331055,-7.1875,11.3125,-5.75,-0.0714111,0.578674,-0.735535,0.345032,-1.2293,0.298693,-2.47599
-0.310059,-0.914551,0.319336,-6,11.875,-7.5625,-0.0709229,0.580078,-0.735474,0.342896,-1.23285,0.297874,-2.4809
-0.318359,-0.88916,0.328613,-5.3125,10,-9,-0.0705566,0.581177,-0.735596,0.340881,-1.23568,0.296759,-2.48537
-0.322754,-0.914551,0.296387,-6.1875,5.8125,-12.5625,-0.071167,0.582336,-0.735535,0.338745,-1.23912,0.294055,-2.48888
-0.310059,-0.966309,0.310547,-4.3125,5.5,-12.4375,-0.0719604,0.583252,-0.735779,0.336487,-1.24208,0.290696,-2.49244
-0.311035,-0.944824,0.304688,1.75,8.5625,-11.1875,-0.0717773,0.583557,-0.736572,0.334229,-1.24304,0.288323,-2.49682
-0.317383,-0.923828,0.312012,5.1875,8.1875,-9.75,-0.071167,0.583374,-0.737671,0.332397,-1.24256,0.286742,-2.50084
-0.311523,-0.916504,0.316406,0.75,4.8125,-5.875,-0.0708008,0.583435,-0.738098,0.33136,-1.24266,0.286022,-2.5031
-0.303711,-0.935547,0.326172,-0.0625,2.5,-2.1875,-0.0705566,0.583557,-0.73822,0.330872,-1.24291,0.28587,-2.50426
-0.29834,-0.92627,0.333008,-1.5,4.625,0.4375,-0.0698853,0.583862,-0.73822,0.330566,-1.24341,0.286742,-2.5057
-0.266113,-0.929199,0.338867,0.75,7.75,-0.5625,-0.0690918,0.583923,-0.738647,0.329651,-1.24332,0.28683,-2.50824
-0.265625,-0.943848,0.335938,5.125,11.25,-0.5625,-0.067688,0.583679,-0.739502,0.328369,-1.24222,0.287143,-2.51197
-0.30127,-0.931641,0.325684,7.4375,15.3125,-3.75,-0.0655518,0.583496,-0.740723,0.326477,-1.24107,0.287843,-2.51774
-0.320313,-0.881348,0.313477,0.8125,16.25,-7.0625,-0.0637207,0.584229,-0.741272,0.324219,-1.24237,0.288346,-2.52404
-0.319824,-0.928711,0.322266,-6.75,13.4375,-3.5,-0.062439,0.585754,-0.740906,0.32251,-1.24584,0.28932,-2.52901
-0.313477,-0.963867,0.303223,-4.8125,11.4375,-1.375,-0.0612793,0.587158,-0.740479,0.321106,-1.24904,0.290392,-2.53325
-0.324219,-0.955566,0.296875,2.1875,8.6875,0.375,-0.0598145,0.587646,-0.740601,0.320374,-1.24977,0.29207,-2.53643
-0.32666,-0.92041,0.292969,1.5,5.75,1.5625,-0.0585327,0.587952,-0.74054,0.32019,-1.25003,0.29404,-2.53828
-0.311035,-0.932129,0.29248,-1.6875,2.8125,3.6875,-0.0578003,0.588501,-0.740051,0.320374,-1.25107,0.295826,-2.53891
-0.312012,-0.931641,0.290527,-2.0625,0.25,3,-0.0574341,0.588989,-0.739502,0.32074,-1.25209,0.297237,-2.53879
-0.29834,-0.952148,0.28418,-2.4375,-1.5,2.5,-0.0576172,0.589478,-0.738953,0.321045,-1.25335,0.297724,-2.53819
-0.299805,-0.936035,0.300293,1.875,-2.875,2.8125,-0.0576782,0.589172,-0.738953,0.321716,-1.25254,0.298252,-2.53688
-0.296387,-0.924805,0.300781,3,-4.0625,2.9375,-0.0577393,0.588623,-0.739014,0.322449,-1.25107,0.298683,-2.53524
-0.297363,-0.92041,0.32373,1.1875,-4.3125,2.4375,-0.0579834,0.588074,-0.739075,0.323242,-1.24968,0.298903,-2.53334
-0.311035,-0.901367,0.311035,-2.25,-3.8125,1.125,-0.0582886,0.588074,-0.73877,0.323914,-1.24972,0.299295,-2.53181
-0.31543,-0.914063,0.313965,-3.5,-3.3125,-0.75,-0.0587769,0.588257,-0.738464,0.32428,-1.25035,0.299152,-2.53073
-0.287598,-0.922852,0.329102,-2.75,-1,-3.3125,-0.0595093,0.588318,-0.738525,0.323914,-1.25086,0.297604,-2.53061
-0.289063,-0.944336,0.313477,-1.625,0.75,-5.5625,-0.0601807,0.58844,-0.73877,0.322998,-1.25156,0.295492,-2.53154
-0.304688,-0.964355,0.305176,0.5,-0.875,-1.3125,-0.0604248,0.58844,-0.738831,0.322876,-1.25169,0.294957,-2.53153
-0.325684,-0.920898,0.297852,2.75,-2.5,2.375,-0.0601196,0.588074,-0.73877,0.323669,-1.25053,0.296165,-2.53028
-0.325684,-0.913086,0.301758,-0.75,-3.875,3.5625,-0.0599976,0.588074,-0.738342,0.324646,-1.25035,0.297608,-2.52864
-0.313965,-0.928711,0.305176,-3.375,-4.5,3.6875,-0.0602417,0.588318,-0.737671,0.325623,-1.25093,0.298683,-2.52667
-0.308594,-0.946777,0.316895,-0.0625,-4.3125,3,-0.0604858,0.588074,-0.737488,0.326477,-1.25031,0.299215,-2.5248
-0.306641,-0.924805,0.311523,2.625,-4.3125,2.375,-0.0606079,0.587524,-0.73761,0.327332,-1.2489,0.299686,-2.52302
-0.311523,-0.896484,0.308594,-0.6875,-4.75,0.875,-0.0609741,0.58728,-0.737427,0.328064,-1.24834,0.299877,-2.52119
-0.307617,-0.920898,0.31543,-4.875,-4.9375,0.1875,-0.0618286,0.587524,-0.736877,0.328613,-1.24923,0.299473,-2.51929
-0.299805,-0.928223,0.320801,-3.3125,-3.625,-0.8125,-0.062561,0.587646,-0.736633,0.328857,-1.24983,0.298759,-2.51811
-0.293945,-0.924316,0.318848,-0.625,-2.0625,-1,-0.0629883,0.587463,-0.736694,0.328918,-1.24954,0.298042,-2.51744
-0.304688,-0.922852,0.320313,0.3125,-1.125,-1.875,-0.0632324,0.587219,-0.736877,0.328857,-1.24903,0.297398,-2.51718
-0.296387,-0.926758,0.320313,-1.5625,0,-2.3125,-0.0635376,0.58728,-0.736938,0.328552,-1.24936,0.296587,-2.51741
-0.291016,-0.932129,0.314453,-2.25,0.375,-1.375,-0.0638428,0.587524,-0.736877,0.328308,-1.25015,0.295993,-2.51766
-0.297363,-0.935059,0.317383,-0.4375,0.6875,0.125,-0.0638428,0.587524,-0.736877,0.328308,-1.25015,0.295993,-2.51766
-0.286133,-0.934082,0.317383,1,1.125,1,-0.0636597,0.587341,-0.737,0.328247,-1.2496,0.296058,-2.51783
-0.299805,-0.941895,0.314941,2.0625,1.3125,1.5,-0.0632324,0.587158,-0.737183,0.328308,-1.24895,0.296641,-2.51816
-0.310547,-0.924805,0.313965,3,2.125,0.9375,-0.062561,0.586853,-0.737488,0.328308,-1.2479,0.297427,-2.51881
-0.3125,-0.921875,0.31543,0.4375,1.625,1.875,-0.0620117,0.586914,-0.737427,0.328491,-1.2478,0.298549,-2.51913
-0.313477,-0.918945,0.314453,-0.5,1.4375,2.1875,-0.0615234,0.587036,-0.737244,0.328735,-1.24786,0.29971,-2.51924
-0.311523,-0.924316,0.303711,-0.3125,1.5625,1.8125,-0.0610352,0.587219,-0.737061,0.328857,-1.24808,0.300764,-2.5196
-0.318848,-0.91748,0.315918,0.3125,0.875,0.6875,-0.0609741,0.587219,-0.737061,0.328857,-1.24805,0.300858,-2.51966
-0.322266,-0.922363,0.311523,-0.5625,0.1875,0.0625,-0.0609741,0.587219,-0.737061,0.328918,-1.24806,0.300933,-2.51958
-0.321289,-0.927246,0.313477,-0.6875,-0.4375,-0.25,-0.0609131,0.587219,-0.737061,0.328918,-1.24803,0.301027,-2.51964
-0.307129,-0.926758,0.310059,0.25,-0.75,-0.875,-0.0609131,0.587219,-0.737061,0.328918,-1.24803,0.301027,-2.51964
-0.302246,-0.919922,0.317383,-0.3125,-0.0625,-1.5,-0.0610352,0.587158,-0.737183,0.328796,-1.24795,0.300631,-2.51974
-0.30957,-0.922852,0.31543,-1.8125,-0.0625,-1.4375,-0.0612183,0.58728,-0.737061,0.328674,-1.24833,0.300298,-2.51972
-0.307129,-0.930176,0.323242,-2.375,-0.375,-0.875,-0.0614624,0.587463,-0.736938,0.328613,-1.24891,0.299988,-2.51965
-0.298828,-0.925293,0.311523,-2.125,-0.625,-0.9375,-0.0617676,0.587646,-0.736816,0.328552,-1.24952,0.299584,-2.51951
-0.296875,-0.938477,0.31543,-1,-0.75,-0.5,-0.0617676,0.587646,-0.736816,0.328552,-1.24952,0.299584,-2.51951
-0.300293,-0.920898,0.302246,0.5625,0.125,-1.125,-0.0618286,0.587585,-0.736938,0.328369,-1.24941,0.299207,-2.51975
-0.305664,-0.933105,0.310547,-1.4375,-0.4375,0,-0.0619507,0.587708,-0.736816,0.32843,-1.24977,0.299193,-2.51956
-0.307129,-0.92627,0.311035,-1.5625,0.1875,-0.0625,-0.0619507,0.587891,-0.736633,0.32843,-1.25021,0.299343,-2.51958
-0.293457,-0.943359,0.297852,-1.25,0.3125,-0.0625,-0.0621338,0.588196,-0.736511,0.328247,-1.25111,0.299061,-2.51988
-0.295898,-0.936035,0.302246,0.0625,0.1875,0.5,-0.0621338,0.588196,-0.736511,0.328247,-1.25111,0.299061,-2.51988
-0.300781,-0.942871,0.29834,1.5625,0.6875,1.3125,-0.0618896,0.588196,-0.736511,0.328247,-1.25099,0.299437,-2.52012
-0.293457,-0.925293,0.310547,3,1.125,1.9375,-0.0614624,0.58783,-0.736755,0.328369,-1.24986,0.299963,-2.52021
-0.308594,-0.921387,0.305176,1.5,1.4375,0.8125,-0.0610352,0.587769,-0.736877,0.32843,-1.24954,0.300639,-2.52063
-0.301758,-0.932129,0.313477,1.625,1.6875,1.3125,-0.0606079,0.587585,-0.737,0.32843,-1.24888,0.301157,-2.52097
-0.307129,-0.92627,0.315918,4,2.875,-1.125,-0.0600586,0.587219,-0.737549,0.328064,-1.24779,0.301234,-2.52217
-0.313965,-0.909668,0.313965,2.125,2.125,-0.5625,-0.0595703,0.586975,-0.737854,0.327881,-1.24699,0.301557,-2.52295
-0.313477,-0.927246,0.321289,0.25,1.5625,-0.5,-0.0593262,0.586975,-0.737915,0.327759,-1.2469,0.301777,-2.52342
-0.311523,-0.934082,0.313477,0.1875,1.875,0.125,-0.059021,0.587036,-0.737976,0.327576,-1.24695,0.302058,-2.52411
-0.304199,-0.933105,0.312988,2,2.0625,0.3125,-0.0586548,0.586914,-0.738159,0.327393,-1.2465,0.302292,-2.52477
-0.303223,-0.917969,0.324219,2.8125,2.1875,0.25,-0.0581665,0.586548,-0.738586,0.327271,-1.24541,0.302594,-2.52546
-0.308594,-0.930176,0.307617,1.6875,2,0.375,-0.0577393,0.586487,-0.738708,0.327148,-1.24509,0.303049,-2.52611
-0.306641,-0.924316,0.318359,1.5625,2.4375,0.6875,-0.057251,0.586365,-0.738892,0.327026,-1.2446,0.303549,-2.52682
-0.312012,-0.916504,0.310547,1.375,2.5,0.3125,-0.0567627,0.586365,-0.739014,0.326843,-1.24442,0.304066,-2.52769
-0.315918,-0.922363,0.319336,0.6875,1.6875,0.5625,-0.0563354,0.586304,-0.739075,0.326843,-1.24408,0.304679,-2.52811
-0.315918,-0.922852,0.313965,0.625,1.375,0.3125,-0.0559692,0.586304,-0.739136,0.326782,-1.24394,0.305164,-2.52863
-0.316895,-0.929199,0.317871,1.1875,1.5,0.6875,-0.055542,0.586243,-0.739197,0.326782,-1.2436,0.305777,-2.52906
-0.312988,-0.919922,0.316895,1.4375,1.625,0.375,-0.0551758,0.586121,-0.73938,0.326721,-1.24317,0.306165,-2.52957
-0.307617,-0.929199,0.321289,0.8125,1.25,1.5,-0.0548096,0.585999,-0.739441,0.326782,-1.24269,0.306717,-2.52977
-0.302734,-0.923828,0.31543,0.75,1.5,1.3125,-0.0545044,0.585999,-0.739502,0.326782,-1.24258,0.307184,-2.53015
-0.318359,-0.927246,0.31543,0.375,1.625,0.625,-0.0541382,0.58606,-0.739502,0.326782,-1.24259,0.307794,-2.5306
-0.308594,-0.929199,0.317871,0.75,1.4375,1.0625,-0.053833,0.585999,-0.739563,0.326721,-1.24231,0.308144,-2.53098
-0.308594,-0.918457,0.322266,2,1.6875,0.3125,-0.0534668,0.585754,-0.739807,0.32666,-1.24155,0.308443,-2.5314
-0.311035,-0.920898,0.314941,1.4375,1.875,0.3125,-0.0531006,0.585693,-0.739929,0.326477,-1.24126,0.308731,-2.53207
-0.317871,-0.926758,0.321289,0.25,2.1875,-0.375,-0.0527954,0.585754,-0.740051,0.326294,-1.24135,0.309008,-2.53284
-0.307617,-0.918457,0.314941,-1.375,2.4375,0.1875,-0.0525513,0.58606,-0.739929,0.325989,-1.24205,0.309234,-2.53373
-0.310547,-0.936523,0.311035,-1.125,2.375,1.3125,-0.0522461,0.586365,-0.739746,0.325867,-1.2427,0.309787,-2.53438
-0.3125,-0.92041,0.3125,-0.0625,2.8125,2.25,-0.0516357,0.586548,-0.739624,0.325867,-1.24291,0.310874,-2.53509
-0.312012,-0.92041,0.320313,-0.0625,2,2.5625,-0.0511475,0.58667,-0.739563,0.325989,-1.24303,0.311873,-2.53551
-0.320801,-0.923828,0.321777,-0.625,2.25,2.8125,-0.0505371,0.586792,-0.73938,0.326172,-1.24305,0.313151,-2.53584
-0.317871,-0.913574,0.315918,-0.25,3.25,2.5625,-0.0498047,0.586975,-0.739258,0.326233,-1.24322,0.314503,-2.5366
-0.322754,-0.92041,0.312988,0.4375,2.0625,1.4375,-0.0493164,0.587097,-0.739258,0.326233,-1.24336,0.315346,-2.53725
-0.312988,-0.928711,0.308105,0.6875,0.625,1.75,-0.0491333,0.587097,-0.739197,0.326355,-1.24326,0.315788,-2.53721
-0.333008,-0.914551,0.3125,1.3125,-0.375,1.3125,-0.0487671,0.586914,-0.739197,0.32666,-1.2426,0.316609,-2.53695
-0.326172,-0.917969,0.3125,0.1875,-0.4375,0.5625,-0.0487671,0.586914,-0.739197,0.32666,-1.2426,0.316609,-2.53695
-0.32959,-0.914063,0.3125,-0.375,-0.5,0.125,-0.0487671,0.586914,-0.739197,0.32666,-1.2426,0.316609,-2.53695
-0.324707,-0.916992,0.314941,-1.3125,-0.6875,-1.1875,-0.0489502,0.587036,-0.739136,0.32666,-1.243,0.316414,-2.53685
-0.318848,-0.92334,0.321777,-1.1875,-1,-1.4375,-0.0492554,0.587036,-0.739136,0.326599,-1.24312,0.315864,-2.53662
-0.320313,-0.915527,0.318848,-0.9375,-1.25,-0.875,-0.0494995,0.586975,-0.739136,0.326599,-1.24305,0.315443,-2.53629
-0.321777,-0.920898,0.317383,-1.5625,-1.625,-1.0625,-0.0498657,0.587036,-0.739014,0.32666,-1.24333,0.315003,-2.53577
-0.319336,-0.921875,0.313965,-1.625,-1.75,-1.25,-0.050293,0.587158,-0.738892,0.326721,-1.24381,0.314511,-2.53528
-0.3125,-0.935059,0.313477,-0.75,-1.1875,-1.1875,-0.0506592,0.587158,-0.738892,0.326599,-1.24396,0.313792,-2.53506
-0.319824,-0.921387,0.319824,-0.375,-0.4375,-1.8125,-0.0509033,0.587097,-0.739014,0.326477,-1.24394,0.313207,-2.53504
-0.318848,-0.922852,0.3125,-1.5625,-0.5625,-2,-0.0512085,0.58728,-0.738953,0.326294,-1.24455,0.312639,-2.53513
-0.311523,-0.933594,0.316406,-1.25,-0.25,-1.4375,-0.0515137,0.587341,-0.738953,0.32605,-1.24485,0.311905,-2.53521
-0.30957,-0.924805,0.311523,0.5625,0.4375,-1.5625,-0.0516357,0.58728,-0.739075,0.325806,-1.24477,0.31136,-2.53547
-0.314941,-0.925293,0.310547,0.5625,1.5,-1.9375,-0.0515747,0.58728,-0.739258,0.325378,-1.2448,0.310907,-2.53629
-0.319824,-0.918945,0.315918,0,1.9375,-2.4375,-0.0515137,0.587341,-0.739441,0.324951,-1.245,0.310497,-2.5372
-0.313965,-0.92041,0.318359,-0.3125,1.75,-2.1875,-0.0514526,0.587402,-0.739563,0.324524,-1.24518,0.310093,-2.53804
-0.313965,-0.929199,0.31543,0.75,1.875,-1.5,-0.0513306,0.587402,-0.739807,0.324158,-1.24522,0.309805,-2.53892
-0.3125,-0.921875,0.316406,1.4375,2.0625,-1.3125,-0.0510864,0.587219,-0.740051,0.323792,-1.24468,0.309581,-2.53969
-0.316406,-0.918945,0.310059,0.5625,1.9375,-1.6875,-0.0509033,0.58728,-0.740234,0.323425,-1.24483,0.309436,-2.54065
-0.30957,-0.931152,0.305664,-0.25,0.625,-1.25,-0.0510254,0.587402,-0.740234,0.323181,-1.24522,0.309028,-2.541
-0.308594,-0.935059,0.314941,1.3125,0.4375,-0.3125,-0.0509644,0.587219,-0.740417,0.323059,-1.24475,0.308829,-2.54119
-0.31543,-0.917969,0.312012,1.6875,0.1875,-0.75,-0.0509033,0.587036,-0.740601,0.322998,-1.24427,0.308705,-2.54132
-0.314453,-0.92627,0.3125,0.125,-0.3125,-0.8125,-0.0509033,0.587036,-0.740601,0.322998,-1.24427,0.308705,-2.54132
-0.313477,-0.925781,0.316406,0.25,-0.25,-0.75,-0.0508423,0.587036,-0.740601,0.322998,-1.24425,0.3088,-2.54138
-0.312988,-0.926758,0.317383,1.125,0.0625,-0.3125,-0.0508423,0.586853,-0.740784,0.322937,-1.2438,0.308581,-2.54144
-0.305664,-0.92627,0.321777,0.875,0.0625,0.4375,-0.0508423,0.586792,-0.740784,0.322937,-1.24363,0.30854,-2.54136
-0.304688,-0.927734,0.32373,0.75,0.25,0.3125,-0.0508423,0.586792,-0.740784,0.322937,-1.24363,0.30854,-2.54136
-0.301758,-0.930664,0.318359,0.8125,0.625,0.9375,-0.0509033,0.586792,-0.740845,0.322937,-1.24367,0.308438,-2.54137
-0.310547,-0.921875,0.315918,1.625,1.25,0.8125,-0.0505371,0.586609,-0.740967,0.322937,-1.24305,0.308871,-2.54165
-0.313965,-0.92041,0.314941,0.4375,2.5,1,-0.0500488,0.58667,-0.740967,0.322815,-1.24302,0.309521,-2.54238
-0.3125,-0.926758,0.322754,0.3125,2.3125,1.625,-0.0495605,0.586731,-0.741028,0.322815,-1.24301,0.310316,-2.54303
-0.310547,-0.927734,0.312988,1.875,3.3125,1.8125,-0.0488892,0.58667,-0.74115,0.322693,-1.2426,0.311157,-2.54394
-0.317871,-0.920898,0.321289,2.5625,4.1875,1.875,-0.0479736,0.586548,-0.741333,0.322571,-1.24195,0.312331,-2.54509
-0.318848,-0.904785,0.321777,1.8125,5,1.0625,-0.0469971,0.586487,-0.741577,0.322327,-1.24147,0.313486,-2.54661
-0.316406,-0.917969,0.320801,-0.0625,4.0625,1.3125,-0.0463257,0.58667,-0.741577,0.322083,-1.24171,0.314356,-2.54785
-0.31543,-0.929688,0.321289,0.5625,4.3125,1.25,-0.0456543,0.586792,-0.741638,0.321777,-1.2418,0.315103,-2.54916
-0.318848,-0.921875,0.31543,1.3125,4.75,1.4375,-0.0447998,0.586914,-0.74176,0.321472,-1.24184,0.316131,-2.55073
-0.318848,-0.920898,0.316895,1.1875,4.9375,1.6875,-0.0439453,0.586975,-0.741821,0.321228,-1.2417,0.317199,-2.55208
-0.319336,-0.914063,0.314453,0.625,4.375,2.0625,-0.0430908,0.587158,-0.741821,0.321045,-1.24188,0.318431,-2.55343
-0.327637,-0.924805,0.304688,-1,3.625,2.875,-0.0423584,0.587585,-0.741516,0.321045,-1.24269,0.319892,-2.55438
-0.334473,-0.922363,0.313965,1.75,3.1875,4,-0.0413208,0.587585,-0.741455,0.321289,-1.24227,0.321821,-2.55506
-0.332031,-0.907715,0.320313,1.6875,3.6875,1.25,-0.0405273,0.587524,-0.741638,0.321167,-1.24186,0.322853,-2.55618
-0.322754,-0.916016,0.314453,-1.3125,2.8125,1.625,-0.0401001,0.58783,-0.741455,0.321106,-1.2425,0.323668,-2.55688
-0.324219,-0.925293,0.317871,0.375,3.125,0.6875,-0.0396118,0.587891,-0.741516,0.320862,-1.2425,0.324165,-2.55786
-0.320801,-0.912598,0.316406,1.625,2.75,0.5625,-0.0391235,0.587769,-0.741699,0.320679,-1.24204,0.324604,-2.55865
-0.325684,-0.90918,0.320801,-0.1875,2.375,0.4375,-0.0387573,0.58783,-0.74176,0.320496,-1.2421,0.324987,-2.55942
-0.32959,-0.918457,0.314453,-1.9375,1.4375,0,-0.0386353,0.588135,-0.741577,0.320374,-1.24285,0.325248,-2.55989
-0.328613,-0.924805,0.318359,-0.4375,0.875,-0.0625,-0.0386353,0.588135,-0.741577,0.320374,-1.24285,0.325248,-2.55989
-0.335449,-0.918945,0.304688,0.5625,1.125,-0.9375,-0.0385132,0.588196,-0.741638,0.320129,-1.24299,0.325172,-2.56049
-0.331055,-0.920898,0.314941,-0.3125,0.4375,-0.6875,-0.0385132,0.588196,-0.741638,0.32019,-1.24299,0.325248,-2.56041
-0.337891,-0.921387,0.30127,-1.125,1.125,-1.25,-0.0384521,0.588501,-0.741516,0.319885,-1.24379,0.32518,-2.56113
-0.335938,-0.918945,0.308105,-2.125,-0.6875,-0.375,-0.0385742,0.588745,-0.741272,0.319946,-1.24443,0.32525,-2.56095
-0.327637,-0.925781,0.308594,-2.1875,-1.625,0.375,-0.0388794,0.588989,-0.741028,0.320129,-1.24515,0.325185,-2.56043
-0.322266,-0.937988,0.310059,-0.4375,-0.9375,0.75,-0.0389404,0.588989,-0.741028,0.320129,-1.24517,0.32509,-2.56037
-0.320801,-0.930176,0.319824,1.75,0.1875,1,-0.0388184,0.588745,-0.741211,0.32019,-1.24451,0.325176,-2.56031
-0.327148,-0.916016,0.311035,2,1.5625,1.0625,-0.0383911,0.588562,-0.741333,0.32019,-1.24387,0.325711,-2.56066
-0.323242,-0.898438,0.316895,0.25,2.6875,0.875,-0.0379028,0.588562,-0.741455,0.320068,-1.24374,0.326314,-2.56146
-0.32666,-0.910645,0.318359,-1.0625,1.5625,0,-0.0377197,0.588684,-0.741394,0.319946,-1.24399,0.326536,-2.5619
-0.329102,-0.926758,0.314941,-0.375,1,-0.375,-0.0376587,0.588745,-0.741394,0.319763,-1.24414,0.326445,-2.56229
-0.334961,-0.920898,0.310059,0.625,1.875,-1.25,-0.0374756,0.588806,-0.741516,0.319458,-1.24429,0.326384,-2.5631
-0.334961,-0.91748,0.305176,-0.4375,1.625,-1.4375,-0.0373535,0.588989,-0.741516,0.319092,-1.24476,0.326243,-2.56394
-0.330566,-0.921875,0.317383,-0.5625,1.1875,-0.75,-0.0372925,0.58905,-0.741577,0.318909,-1.24493,0.326147,-2.56439
-0.331543,-0.924805,0.311523,0.5,1.625,-0.375,-0.0370483,0.589111,-0.741638,0.318665,-1.24503,0.326262,-2.56511
-0.333008,-0.912598,0.308594,0,1.625,-0.6875,-0.0368652,0.589172,-0.741638,0.318481,-1.24513,0.326362,-2.56563
-0.326172,-0.918945,0.308105,-1.0625,0.6875,-0.375,-0.0368652,0.589355,-0.741577,0.318359,-1.24563,0.326338,-2.56595
-0.330078,-0.924805,0.316406,-0.0625,0.5,0.125,-0.0368652,0.589355,-0.741577,0.318359,-1.24563,0.326338,-2.56595
-0.326172,-0.914551,0.31543,0.3125,0.5,0,-0.0368652,0.589355,-0.741577,0.318359,-1.24563,0.326338,-2.56595
-0.32666,-0.918457,0.319824,-0.875,0.625,0.0625,-0.0368652,0.589294,-0.741638,0.318359,-1.24548,0.326293,-2.56594
-0.326172,-0.920898,0.313965,-0.5,1,0,-0.0368042,0.589417,-0.741638,0.318237,-1.2458,0.326318,-2.56632
-0.327148,-0.914063,0.310059,-0.625,1,0,-0.0366821,0.589478,-0.741577,0.318115,-1.24591,0.326403,-2.56662
-0.326172,-0.920898,0.311523,0,1.9375,-0.25,-0.036499,0.5896,-0.741638,0.317871,-1.24621,0.326463,-2.56736
-0.323242,-0.92041,0.308594,0.1875,1.75,-0.125,-0.0363159,0.589661,-0.741699,0.317627,-1.24634,0.326482,-2.56802
-0.331543,-0.919922,0.3125,1.0625,1.625,-0.375,-0.0360718,0.5896,-0.741821,0.317444,-1.24612,0.326587,-2.56858
-0.32373,-0.91748,0.315918,0.375,1.4375,0.125,-0.0358276,0.589539,-0.741943,0.317322,-1.2459,0.326767,-2.56905
-0.334961,-0.916504,0.30957,-0.3125,1.5625,-0.375,-0.0356445,0.589661,-0.741943,0.317139,-1.24618,0.326908,-2.56964
-0.332031,-0.916992,0.307129,-1.1875,1.5625,-0.1875,-0.0354614,0.589905,-0.741821,0.316956,-1.24676,0.327139,-2.57025
-0.328613,-0.921387,0.311035,-0.4375,1.75,0.0625,-0.0352783,0.590027,-0.741821,0.316772,-1.24704,0.327279,-2.57084
-0.327637,-0.919434,0.314941,0.4375,1.9375,0.4375,-0.0349731,0.590027,-0.741882,0.31665,-1.24695,0.327601,-2.57139
-0.330566,-0.919922,0.308594,0.75,1.6875,0.5,-0.034668,0.590027,-0.741943,0.316528,-1.24687,0.327923,-2.57194
-0.333496,-0.916016,0.308105,0.0625,1.5,0.6875,-0.0343018,0.590088,-0.741943,0.316528,-1.24691,0.328538,-2.5724
-0.329102,-0.916504,0.306641,-0.375,2.1875,0.3125,-0.0340576,0.590271,-0.741882,0.316284,-1.24732,0.328743,-2.57315
-0.330078,-0.92041,0.308105,0.3125,2.375,0.625,-0.0336304,0.590332,-0.741882,0.316162,-1.24735,0.329301,-2.57384
-0.333984,-0.915527,0.301758,0.3125,2.25,0.375,-0.0332642,0.590454,-0.741882,0.315979,-1.24757,0.329728,-2.57462
-0.331543,-0.92627,0.310547,0.4375,1.8125,0.9375,-0.032959,0.590515,-0.741882,0.315857,-1.24763,0.330095,-2.57518
-0.334961,-0.920898,0.308594,1.0625,2.1875,0.3125,-0.0325317,0.590515,-0.742004,0.315735,-1.24753,0.330605,-2.57593
-0.330078,-0.919922,0.310547,0.625,2.1875,0.5,-0.0322266,0.590515,-0.742065,0.315552,-1.24745,0.330851,-2.57657
-0.334473,-0.916992,0.310547,0.1875,2.125,0.625,-0.0318604,0.590576,-0.742126,0.31543,-1.24752,0.33131,-2.57726
-0.336914,-0.922852,0.308594,0.25,1.75,0.9375,-0.0314941,0.590637,-0.742065,0.315369,-1.24754,0.331853,-2.57774
-0.335449,-0.92041,0.305176,0.3125,1.5625,0.5,-0.031189,0.590698,-0.742065,0.315247,-1.24761,0.33222,-2.5783
-0.33252,-0.918457,0.312988,1.25,1.125,0.9375,-0.0308838,0.590576,-0.742188,0.315308,-1.24721,0.332686,-2.57852
-0.33252,-0.916016,0.305664,1.5,1.1875,0.125,-0.0306396,0.590454,-0.742371,0.315186,-1.24685,0.332824,-2.57899
-0.335938,-0.914551,0.310059,-0.375,0.8125,0.1875,-0.0306396,0.590454,-0.742371,0.315186,-1.24685,0.332824,-2.57899
-0.335938,-0.925781,0.306641,-0.625,1,0.25,-0.0305176,0.590576,-0.74231,0.315063,-1.24713,0.332948,-2.57937
-0.333496,-0.921875,0.307617,0.375,0.9375,0.625,-0.0305176,0.590576,-0.74231,0.315063,-1.24713,0.332948,-2.57937
-0.334473,-0.90918,0.30957,0.375,0.9375,0.75,-0.0305176,0.590576,-0.74231,0.315063,-1.24713,0.332948,-2.57937
-0.339355,-0.914551,0.303223,-0.1875,0.875,0.5,-0.0305176,0.590576,-0.742249,0.315063,-1.24711,0.332952,-2.5793
-0.332031,-0.921387,0.320313,0.1875,0.6875,0.6875,-0.0305176,0.590576,-0.74231,0.315063,-1.24713,0.332948,-2.57937
-0.336914,-0.90918,0.31543,0.5,0.9375,0.6875,-0.0305176,0.590576,-0.74231,0.315063,-1.24713,0.332948,-2.57937
-0.339844,-0.91748,0.312012,-0.0625,1.375,1.25,-0.0301514,0.590576,-0.742249,0.315125,-1.24699,0.333604,-2.57961
-0.339355,-0.919922,0.312988,-0.1875,1.5625,1.3125,-0.0297852,0.590698,-0.742188,0.315186,-1.24719,0.334341,-2.58
-0.333008,-0.922852,0.299316,-0.25,2,1.625,-0.02948,0.590881,-0.742065,0.315125,-1.24757,0.334874,-2.5805
-0.32959,-0.92041,0.301758,-0.1875,2.4375,1.75,-0.0290527,0.591125,-0.741943,0.315002,-1.24808,0.335563,-2.5813
-0.337402,-0.915527,0.307617,1.5,2.6875,1.75,-0.0284424,0.591064,-0.742004,0.315002,-1.24773,0.336478,-2.58193
-0.346191,-0.911133,0.309082,0.6875,2.375,1.375,-0.027832,0.591064,-0.742065,0.315002,-1.24755,0.337434,-2.58265
-0.353027,-0.912598,0.311035,-0.9375,1.6875,1.25,-0.0274048,0.591248,-0.741882,0.315063,-1.24787,0.338316,-2.58305
-0.346191,-0.919922,0.308105,-0.75,1.3125,1.5625,-0.0270996,0.591431,-0.741699,0.315186,-1.24823,0.339082,-2.58325
-0.34375,-0.916504,0.310059,0.4375,1.5,1.5,-0.0266724,0.591431,-0.741699,0.315247,-1.24809,0.33983,-2.58362
-0.337891,-0.914551,0.30957,1.0625,2.3125,1.375,-0.0261841,0.59137,-0.741821,0.315125,-1.24781,0.340398,-2.58436
-0.355469,-0.929688,0.296387,0.375,1.1875,2.875,-0.0256958,0.591553,-0.741577,0.315369,-1.24809,0.341609,-2.58452
-0.341797,-0.90918,0.311523,3.3125,1.5,3.875,-0.0249023,0.591125,-0.74176,0.315796,-1.24669,0.343099,-2.58445
-0.345703,-0.893066,0.307129,0.5625,1.3125,1.8125,-0.0244141,0.591064,-0.74176,0.315918,-1.24636,0.34398,-2.58473
-0.339844,-0.911133,0.307129,-1.375,0.625,2.375,-0.024231,0.591309,-0.741516,0.316162,-1.24691,0.344752,-2.58464
-0.353027,-0.912598,0.305176,2.1875,1.5,-0.5,-0.0238647,0.591125,-0.74176,0.315979,-1.24636,0.344964,-2.58531
-0.354492,-0.895508,0.311035,1,1.375,-0.9375,-0.0236206,0.591003,-0.741943,0.315796,-1.24601,0.345028,-2.58586
-0.351074,-0.910645,0.308594,-2.375,1.5,-0.625,-0.0235596,0.59137,-0.741699,0.315613,-1.24694,0.345152,-2.58637
-0.350586,-0.914551,0.307129,-1.9375,1.3125,-0.5,-0.0234985,0.591675,-0.741577,0.31543,-1.24775,0.345228,-2.58694
-0.346191,-0.916992,0.308105,-0.5625,1.75,-0.9375,-0.0233765,0.591797,-0.741577,0.315125,-1.24806,0.345119,-2.58764
-0.347656,-0.908203,0.316406,0.125,2.5,-0.75,-0.0231323,0.591797,-0.741699,0.314819,-1.24803,0.345114,-2.58844
-0.346191,-0.913574,0.305664,-0.3125,2.4375,0.3125,-0.0227661,0.59198,-0.741699,0.314575,-1.24845,0.345506,-2.58939
-0.341309,-0.921387,0.307129,0.8125,2.4375,0.5,-0.0224609,0.59198,-0.74176,0.314331,-1.24837,0.345677,-2.59012
-0.347656,-0.90918,0.304199,0.25,2.0625,-0.25,-0.0221558,0.592041,-0.741821,0.314148,-1.24848,0.345966,-2.59083
-0.344238,-0.916504,0.302734,-1.125,1.6875,-0.5,-0.0220947,0.592285,-0.74176,0.313843,-1.24914,0.345844,-2.59155
-0.345215,-0.923828,0.30127,0.25,1.3125,-0.75,-0.0220337,0.592407,-0.741821,0.313538,-1.24949,0.345635,-2.59225
-0.34668,-0.914063,0.306641,1.1875,1,-1.25,-0.0219727,0.592285,-0.742004,0.313293,-1.24919,0.345334,-2.59269
-0.352051,-0.92334,0.307129,0.5,0.3125,-0.75,-0.0219727,0.592285,-0.742004,0.313293,-1.24919,0.345334,-2.59269
-0.352539,-0.909668,0.305664,1.3125,-0.3125,0,-0.0218506,0.592041,-0.742126,0.313416,-1.2485,0.345511,-2.59247
-0.350098,-0.907227,0.302734,2.0625,-0.1875,-0.75,-0.0217896,0.591797,-0.742371,0.313354,-1.24787,0.345357,-2.59257
-0.352539,-0.904785,0.308105,2.5,0.1875,-2.1875,-0.0217285,0.591431,-0.742737,0.31311,-1.24694,0.344886,-2.5929
-0.34082,-0.903809,0.312012,2.25,0.9375,-3.625,-0.0218506,0.591125,-0.743225,0.312561,-1.24628,0.343777,-2.59365
-0.344238,-0.90625,0.310059,-0.125,0.6875,-5.625,-0.0223389,0.591064,-0.743591,0.311829,-1.24639,0.342029,-2.59443
-0.337402,-0.916992,0.305664,-1.1875,0.5,-6.0625,-0.0230103,0.591248,-0.743774,0.310913,-1.24718,0.339933,-2.59537
-0.33252,-0.919922,0.308105,0.1875,0.5,-5.125,-0.0235596,0.591187,-0.744141,0.310181,-1.2473,0.33809,-2.59609
-0.34082,-0.925293,0.311035,1.125,0.5625,-5.0625,-0.0239258,0.591064,-0.744507,0.309448,-1.2472,0.336496,-2.59692
-0.336426,-0.921875,0.30127,0.875,0.6875,-3.25,-0.0241699,0.591003,-0.744751,0.30896,-1.24719,0.335447,-2.59751
-0.347168,-0.916992,0.308105,0.4375,-0.0625,-1.6875,-0.024231,0.590942,-0.744873,0.308777,-1.24708,0.335076,-2.59774
-0.339844,-0.919922,0.311035,1.0625,-1.0625,-0.5,-0.024353,0.590759,-0.744995,0.308838,-1.24664,0.334834,-2.59743
-0.338379,-0.925781,0.311035,0.9375,-1.125,-0.125,-0.0244141,0.590576,-0.745117,0.30896,-1.24618,0.334764,-2.5971
-0.326172,-0.931152,0.304199,2.75,0.625,0.125,-0.024353,0.590271,-0.745361,0.308777,-1.24538,0.334419,-2.5973
-0.32959,-0.898926,0.311523,3.25,1.6875,-1.1875,-0.0240479,0.589905,-0.74585,0.308472,-1.24442,0.334255,-2.5981
-0.333496,-0.907715,0.313965,-0.25,1,-2.6875,-0.0241699,0.589905,-0.746033,0.308044,-1.24453,0.33352,-2.59875
-0.334961,-0.91748,0.308594,-3.875,0,-3.125,-0.0247192,0.590393,-0.745789,0.307617,-1.24599,0.33245,-2.59908
-0.334473,-0.927734,0.305176,-2.6875,0.4375,-3.5625,-0.0252075,0.590759,-0.745667,0.307068,-1.24714,0.331238,-2.59963
-0.337891,-0.916504,0.31543,-0.6875,1.375,-2.625,-0.0252686,0.590881,-0.745789,0.306641,-1.24755,0.33068,-2.60042
-0.342285,-0.910645,0.307129,-1.5625,0.4375,-2.5,-0.0254517,0.591064,-0.745728,0.306335,-1.2481,0.330132,-2.6008
-0.342773,-0.930176,0.308594,-2.5,-0.9375,-1.0625,-0.0256958,0.59137,-0.745483,0.306335,-1.24895,0.329958,-2.60066
-0.341309,-0.917969,0.3125,-2.5625,-1.1875,0.375,-0.0258789,0.591553,-0.745239,0.30658,-1.24944,0.330107,-2.6001
-0.34082,-0.921387,0.304688,-2.3125,-1.9375,1.6875,-0.026001,0.591797,-0.744873,0.307007,-1.25005,0.330627,-2.5993
-0.336426,-0.935059,0.307129,-1.4375,-2.375,3.1875,-0.026062,0.591858,-0.744507,0.307678,-1.25011,0.331431,-2.59801
-0.331055,-0.920898,0.304199,-0.125,-1.625,3.25,-0.026001,0.591858,-0.744324,0.308228,-1.25002,0.332225,-2.59714
-0.325684,-0.914551,0.305176,-0.625,-1.6875,2.8125,-0.026001,0.591797,-0.744141,0.308716,-1.24979,0.332807,-2.59621
-0.326172,-0.914551,0.305664,-0.5625,-1.125,0.625,-0.0261841,0.591797,-0.74408,0.308899,-1.24982,0.332751,-2.5957
-0.331055,-0.910645,0.312988,-1,-1.8125,-0.5625,-0.0265503,0.591736,-0.74408,0.309021,-1.24976,0.332288,-2.59507
-0.334961,-0.910156,0.314453,-2.0625,-1.625,-1.375,-0.0269165,0.591797,-0.744019,0.309021,-1.25003,0.331755,-2.59469
-0.334473,-0.919922,0.30957,-1.875,-1.25,-1.1875,-0.0272827,0.591919,-0.743896,0.309021,-1.25045,0.331265,-2.59432
-0.336426,-0.92334,0.316895,-1.6875,-1.375,-2,-0.02771,0.591919,-0.743896,0.30896,-1.25058,0.330517,-2.59395
-0.327637,-0.919434,0.311523,-2.4375,-0.875,-1.3125,-0.0281372,0.592102,-0.743774,0.308838,-1.25119,0.329819,-2.59375
-0.334961,-0.932129,0.308594,-2.1875,-1.4375,0.625,-0.0283813,0.592346,-0.74353,0.309082,-1.25188,0.329915,-2.5932
-0.328125,-0.939941,0.296387,-1.0625,-1.75,3.25,-0.0284424,0.592468,-0.743164,0.30957,-1.25211,0.330532,-2.59224
-0.328125,-0.927246,0.299805,2.0625,-2.25,5.25,-0.0281372,0.592163,-0.743103,0.310425,-1.25113,0.331886,-2.59097
-0.332031,-0.912598,0.30127,2.8125,-2.25,5.0625,-0.027771,0.591736,-0.743103,0.311279,-1.2498,0.333251,-2.58968
-0.334961,-0.911133,0.304199,1.1875,-3.375,4.5,-0.0276489,0.59137,-0.742981,0.312256,-1.24868,0.334431,-2.58791
-0.344238,-0.914551,0.30127,0.375,-3.8125,1.9375,-0.027832,0.591187,-0.742798,0.312927,-1.24815,0.334873,-2.58638
-0.339355,-0.912598,0.308105,-0.625,-3.9375,1.125,-0.0282593,0.591064,-0.742676,0.313538,-1.24791,0.334892,-2.58482
-0.341309,-0.916016,0.308594,-1.25,-4.3125,0.5625,-0.0287476,0.590942,-0.742493,0.314087,-1.24765,0.334741,-2.58321
-0.339844,-0.919922,0.309082,-0.5,-4.25,0.5,-0.0292358,0.590759,-0.742371,0.314575,-1.24725,0.33447,-2.58168
-0.335938,-0.918945,0.311523,1.4375,-4.125,0.6875,-0.0296021,0.590332,-0.742493,0.315125,-1.2462,0.334289,-2.58015
-0.336426,-0.921875,0.308105,0.6875,-3.875,1.3125,-0.0299683,0.590088,-0.742493,0.315674,-1.24563,0.334237,-2.57872
-0.339355,-0.914551,0.308105,0.3125,-3.8125,2.125,-0.0301514,0.589844,-0.742371,0.316345,-1.24496,0.334632,-2.57718
-0.341309,-0.91748,0.310547,0.625,-4.3125,2.4375,-0.0303955,0.589539,-0.742249,0.317139,-1.24413,0.335042,-2.57534
-0.335938,-0.915039,0.318848,1.5625,-4.625,2.6875,-0.0306396,0.588989,-0.74231,0.317993,-1.24268,0.335351,-2.57332
-0.33252,-0.90918,0.318848,0.9375,-3.8125,1.25,-0.0309448,0.588623,-0.742371,0.318542,-1.24177,0.335306,-2.57186
-0.338379,-0.911133,0.319824,1.75,-3.875,0.625,-0.03125,0.588074,-0.742554,0.319092,-1.24039,0.335127,-2.57031
-0.352051,-0.885742,0.324219,3.125,-4.25,-0.6875,-0.0314331,0.58728,-0.74292,0.319641,-1.23834,0.334962,-2.56879
-0.357422,-0.879883,0.329102,0.8125,-6.4375,-1.6875,-0.0321045,0.58667,-0.743103,0.320313,-1.23691,0.334314,-2.56662
-0.350098,-0.895508,0.319824,-3.125,-7.6875,-3.9375,-0.0334473,0.586548,-0.74292,0.32074,-1.23697,0.332663,-2.56429
-0.339355,-0.923828,0.320313,-1.375,-7.4375,-6.3125,-0.0350952,0.586243,-0.743103,0.32074,-1.23677,0.329853,-2.56239
-0.32373,-0.905273,0.325195,-1.6875,-7.1875,-8.0625,-0.0369263,0.585938,-0.743408,0.320435,-1.23668,0.32637,-2.56086
-0.314453,-0.921387,0.318848,-4.0625,-6.625,-7.125,-0.0388184,0.585999,-0.743408,0.320068,-1.23755,0.32299,-2.55946
-0.305664,-0.940918,0.327148,-4.0625,-6,-5.125,-0.0405884,0.58606,-0.743347,0.319885,-1.23836,0.320036,-2.55788
-0.302246,-0.9375,0.329102,-1.625,-3.75,-4,-0.0418091,0.585938,-0.743469,0.31958,-1.23853,0.317656,-2.55701
-0.293457,-0.925781,0.325684,0,-1.4375,-2.625,-0.0424805,0.585754,-0.743774,0.319214,-1.23838,0.316003,-2.55692
-0.297852,-0.914551,0.32666,-1.75,0.1875,-3.875,-0.0430908,0.585815,-0.743896,0.318665,-1.23882,0.314401,-2.55723
-0.29834,-0.938965,0.314941,-2.75,0.9375,-3,-0.0436401,0.586243,-0.743835,0.317993,-1.2402,0.313006,-2.55801
-0.311523,-0.927246,0.320313,0.3125,2.25,-3.5,-0.0437622,0.586243,-0.744141,0.317261,-1.24035,0.311885,-2.5592
-0.318848,-0.916992,0.312988,-0.625,1.5,-2.3125,-0.0437622,0.586426,-0.744202,0.316833,-1.24088,0.311475,-2.56006
-0.323242,-0.928223,0.316406,-1.3125,1.0625,-0.8125,-0.0437012,0.58667,-0.74408,0.31665,-1.2415,0.311518,-2.56054
-0.32373,-0.915527,0.318848,0.75,1,-1.125,-0.0435181,0.586548,-0.744202,0.316528,-1.24113,0.311562,-2.56087
-0.32666,-0.914063,0.315918,-0.1875,2,-2.1875,-0.043335,0.58667,-0.744324,0.316101,-1.24144,0.311391,-2.56191
-0.326172,-0.918945,0.312988,-1.8125,1.6875,-2.75,-0.043335,0.586975,-0.744263,0.315674,-1.24227,0.311073,-2.56279
-0.316406,-0.931641,0.30957,-1.5625,1.1875,-2.1875,-0.0435181,0.58728,-0.744202,0.315186,-1.24317,0.310392,-2.56356
-0.311035,-0.931152,0.306152,0.0625,0.6875,-1.375,-0.0435791,0.587402,-0.744202,0.314941,-1.24353,0.310076,-2.56397
-0.306641,-0.92334,0.309082,0.875,0.9375,-1.6875,-0.0436401,0.587341,-0.744385,0.314575,-1.24344,0.309472,-2.56452
-0.307617,-0.915527,0.310547,1.125,2.1875,-2.375,-0.0435791,0.58728,-0.74469,0.314026,-1.24335,0.308822,-2.56558
-0.314941,-0.914551,0.315918,0.1875,1.625,-3.8125,-0.0436401,0.58728,-0.744934,0.313416,-1.24345,0.307952,-2.5666
-0.311523,-0.932617,0.315918,-1.5,0.4375,-3.125,-0.0440063,0.587463,-0.744995,0.312988,-1.24412,0.306967,-2.56708
-0.309082,-0.939453,0.317383,1,0.0625,-0.375,-0.0440063,0.587341,-0.745117,0.312866,-1.24382,0.306726,-2.56723
-0.316406,-0.91748,0.321777,3.375,1.25,-1.0625,-0.0436401,0.586914,-0.745544,0.312744,-1.24263,0.306828,-2.56772
-0.303711,-0.918945,0.318359,0.75,1.625,-1.1875,-0.0435791,0.586792,-0.745789,0.312378,-1.24235,0.306371,-2.56839
-0.298828,-0.928223,0.320801,0.5625,2.25,-1.8125,-0.0435181,0.586792,-0.746033,0.31189,-1.24241,0.305843,-2.56937
-0.298828,-0.922363,0.318359,3.0625,3.3125,-3.0625,-0.0432739,0.586487,-0.746582,0.311157,-1.24165,0.305074,-2.57083
-0.3125,-0.918945,0.324219,2.6875,4.125,-4.6875,-0.0430298,0.586243,-0.747192,0.310181,-1.24108,0.304042,-2.57276
-0.315918,-0.90918,0.325195,0.4375,4.5,-3.9375,-0.0426636,0.586304,-0.747498,0.309326,-1.24121,0.303578,-2.5747
-0.319336,-0.918457,0.313965,0.4375,4.0625,-4.4375,-0.0424194,0.586426,-0.747742,0.308472,-1.24153,0.302968,-2.57651
-0.315918,-0.944336,0.318359,0.125,3.25,-3.1875,-0.0422363,0.586609,-0.747925,0.307739,-1.24204,0.302456,-2.5781
-0.313477,-0.941895,0.306641,1.75,4.3125,-1.625,-0.041748,0.586731,-0.748169,0.307068,-1.24228,0.302454,-2.57992
-0.31543,-0.921387,0.317383,3.6875,4.75,-1.4375,-0.0409546,0.586487,-0.748596,0.306519,-1.24144,0.302829,-2.58166
-0.30127,-0.915527,0.324219,2.875,5.1875,-1.3125,-0.0402222,0.586243,-0.749084,0.305847,-1.24066,0.302955,-2.58356
-0.285645,-0.931152,0.325684,-0.625,5.25,-0.25,-0.0397949,0.586487,-0.749207,0.305115,-1.24122,0.302872,-2.58542
-0.296875,-0.938477,0.324219,-0.25,4.9375,1.5625,-0.0391235,0.586731,-0.749207,0.304749,-1.24166,0.303632,-2.58691
-0.294922,-0.931152,0.310547,1.125,5.4375,2.125,-0.0383301,0.586975,-0.749268,0.304382,-1.24208,0.304578,-2.58859
