acc_x,acc_y,acc_z,gyro_x,gyro_y,gyro_z,ori_x,ori_y,ori_z,ori_w,orie_x,orie_y,orie_z
0.168457,-0.800293,0.625488,-2.1875,-0.0625,-1,-0.395325,0.212219,-0.569519,0.688721,-0.921084,-0.158635,-1.30307
0.157715,-0.808594,0.616211,-3,-1.125,-1.1875,-0.395813,0.212341,-0.569458,0.688477,-0.922154,-0.159084,-1.30302
0.159668,-0.798828,0.615234,-3.0625,-1.3125,-1.8125,-0.39624,0.21228,-0.569519,0.688171,-0.922844,-0.159842,-1.30307
0.160156,-0.807129,0.62207,-2.25,-1.375,-2.25,-0.396606,0.212158,-0.569641,0.687866,-0.923336,-0.160664,-1.30321
0.165527,-0.803223,0.612793,-2.5,-1.9375,-2.25,-0.397156,0.211975,-0.569702,0.687561,-0.924117,-0.161734,-1.30314
0.168457,-0.79834,0.606934,-4.875,-1.875,-2.375,-0.39801,0.212036,-0.569702,0.687073,-0.925781,-0.162845,-1.30315
0.160156,-0.803711,0.596191,-6.375,-2.0625,-2,-0.399048,0.212341,-0.569519,0.686523,-0.928096,-0.163706,-1.30295
0.164551,-0.816406,0.605469,-6,-1.9375,-1.9375,-0.400024,0.212646,-0.569397,0.685974,-0.930301,-0.164547,-1.30289
0.168457,-0.822266,0.612305,-4.0625,-2.1875,-2,-0.400757,0.212646,-0.569336,0.685608,-0.931669,-0.165501,-1.30271
0.17041,-0.810547,0.606934,-3.3125,-2.4375,-2.3125,-0.401428,0.212463,-0.569336,0.685242,-0.932672,-0.166688,-1.30248
0.171875,-0.815918,0.600586,-4.125,-2.3125,-3.625,-0.402283,0.212402,-0.569458,0.684692,-0.934179,-0.168096,-1.30266
0.166504,-0.824219,0.612793,-6,-3.5625,-4,-0.403381,0.212341,-0.569458,0.684082,-0.936149,-0.169713,-1.30254
0.176758,-0.831543,0.625488,-4.625,-4.75,-3.875,-0.404419,0.211914,-0.569458,0.683594,-0.937547,-0.171716,-1.30206
0.176758,-0.830566,0.612793,-4.0625,-5.4375,-6.0625,-0.40564,0.211243,-0.569641,0.682922,-0.938963,-0.174498,-1.30176
0.178711,-0.824707,0.620117,-3.125,-6.4375,-7.5,-0.406738,0.210205,-0.570007,0.682312,-0.939695,-0.177772,-1.30157
0.155762,-0.826172,0.632813,-3.5625,-9.8125,-7.75,-0.407959,0.208984,-0.570068,0.681885,-0.940458,-0.181111,-1.30046
0.166016,-0.830078,0.645508,-2.125,-11.1875,-8.6875,-0.40918,0.207336,-0.570251,0.681519,-0.940708,-0.185119,-1.29925
0.204102,-0.849121,0.625977,-1.9375,-12.6875,-11,-0.411011,0.2052,-0.570557,0.680725,-0.941448,-0.190795,-1.2978
0.214844,-0.837891,0.626465,0.5,-13.25,-13.875,-0.412659,0.202454,-0.57135,0.679932,-0.941105,-0.197518,-1.29699
0.205566,-0.816406,0.638672,1.25,-15.1875,-14.375,-0.414124,0.199341,-0.572144,0.67926,-0.939955,-0.20449,-1.29585
0.189453,-0.812012,0.618652,-7.375,-17.5,-16.375,-0.416931,0.19696,-0.572571,0.677917,-0.942335,-0.211983,-1.29445
0.213867,-0.807129,0.621582,-16.1875,-19.5,-19.8125,-0.421082,0.194763,-0.572998,0.675598,-0.947473,-0.221194,-1.29308
0.257813,-0.85791,0.641602,-19.625,-20.125,-19.0625,-0.425842,0.192688,-0.573242,0.673035,-0.954036,-0.230896,-1.29133
0.270996,-0.890625,0.570313,-15.3125,-17.3125,-11.25,-0.430176,0.191467,-0.572632,0.671082,-0.960976,-0.237923,-1.28833
0.232422,-0.841309,0.537109,3.3125,-13.9375,-8.6875,-0.431763,0.18927,-0.572449,0.670837,-0.96148,-0.242763,-1.28574
0.219238,-0.78418,0.50293,6.1875,-13.5,-14.8125,-0.433105,0.186279,-0.573181,0.670227,-0.960435,-0.249374,-1.28465
0.253418,-0.762695,0.501953,1.1875,-14.0625,-14,-0.43512,0.183472,-0.57373,0.669189,-0.960916,-0.256533,-1.28322
0.277832,-0.765625,0.466309,-6.5,-12.5625,-14.25,-0.438293,0.18158,-0.574097,0.667358,-0.96481,-0.263942,-1.28206
0.265137,-0.788086,0.462402,-7.375,-7.625,-11.125,-0.440918,0.180847,-0.574341,0.665588,-0.968995,-0.268966,-1.28168
0.28125,-0.791504,0.459473,1.5625,-5.6875,-9.125,-0.442383,0.179504,-0.574768,0.664612,-0.970203,-0.273324,-1.28133
0.289063,-0.790039,0.462891,1.1875,-2.75,-11.1875,-0.443604,0.178284,-0.575684,0.66333,-0.970962,-0.277788,-1.28229
0.307617,-0.808594,0.498535,-4.5625,1.5625,-11.3125,-0.444885,0.17804,-0.576904,0.661499,-0.972902,-0.281468,-1.28485
0.319336,-0.817383,0.547363,0.25,3.375,-10.4375,-0.445068,0.177368,-0.57843,0.660217,-0.972107,-0.284501,-1.2879
0.273926,-0.821777,0.560059,0.1875,2.1875,-8.5,-0.445007,0.177124,-0.579529,0.659363,-0.971434,-0.286098,-1.29034
0.265625,-0.820801,0.558594,-9.5625,1.9375,-9.375,-0.446045,0.177795,-0.580383,0.657715,-0.974013,-0.287835,-1.29286
0.274414,-0.820801,0.602539,-13.1875,2.9375,-11.625,-0.447083,0.178589,-0.581604,0.655701,-0.976641,-0.289892,-1.29637
0.260254,-0.844238,0.602051,-22.0625,6.6875,-12.375,-0.44873,0.180847,-0.582825,0.652893,-0.982183,-0.291005,-1.30112
0.260254,-0.859375,0.633789,-32.4375,1.75,-7.9375,-0.451599,0.183899,-0.582947,0.649963,-0.991327,-0.291575,-1.3038
0.262695,-0.804199,0.635742,-28.0625,-2.8125,-9.9375,-0.454224,0.185486,-0.583252,0.6474,-0.998251,-0.293899,-1.30565
0.256836,-0.828125,0.604492,-21.125,-6.6875,-14.625,-0.456848,0.185791,-0.583801,0.644958,-1.00363,-0.29816,-1.30693
0.261719,-0.881836,0.616699,-15.5625,-7.625,-11.875,-0.458923,0.185913,-0.583984,0.64325,-1.00781,-0.301372,-1.30721
0.276855,-0.926758,0.585449,-11.4375,-3.4375,-6.375,-0.460327,0.186707,-0.583862,0.642151,-1.01156,-0.302333,-1.30747
0.274902,-0.847656,0.547852,-6,0.375,0.5625,-0.460571,0.187622,-0.583618,0.641907,-1.01316,-0.30126,-1.30768
0.250977,-0.905273,0.536133,2.75,1.8125,13,-0.459473,0.189331,-0.582031,0.643677,-1.0134,-0.295396,-1.30557
0.208496,-0.992188,0.54834,12.875,3.0625,26.375,-0.456726,0.191895,-0.578979,0.647583,-1.0117,-0.284143,-1.30092
0.167969,-0.994629,0.54248,21.125,3.3125,37.3125,-0.452576,0.194763,-0.57489,0.653259,-1.00783,-0.269138,-1.29432
0.140137,-0.960938,0.537598,23.5,1.1875,48,-0.447876,0.197937,-0.569458,0.660278,-1.00352,-0.251344,-1.28499
0.113281,-0.924805,0.518066,21.9375,-0.125,58.8125,-0.443115,0.201904,-0.562561,0.668152,-1.00026,-0.230797,-1.27313
0.0878906,-0.898438,0.510742,18.1875,-1.5,66.125,-0.438538,0.206543,-0.554565,0.676392,-0.998247,-0.208495,-1.25958
0.0791016,-0.871094,0.504395,12.75,-3.1875,73.6875,-0.434448,0.211792,-0.54541,0.684814,-0.997953,-0.18488,-1.24422
0.0698242,-0.883301,0.489258,2.625,-1.5,81,-0.431274,0.218628,-0.534973,0.69281,-1.00127,-0.159177,-1.22785
0.0249023,-0.896973,0.45752,-5.3125,-5.8125,89,-0.42926,0.226624,-0.522705,0.700867,-1.00825,-0.131466,-1.20908
-0.00830078,-0.84668,0.464355,3.6875,-6.625,92.5,-0.425598,0.233643,-0.510254,0.7099,-1.0106,-0.102781,-1.18957
-0.0385742,-0.824219,0.393066,2.3125,-10.5625,89.8125,-0.422791,0.240356,-0.497498,0.718323,-1.01402,-0.075439,-1.16956
-0.0371094,-0.839844,0.353027,-8.5625,-12.625,92,-0.421875,0.247742,-0.483765,0.725708,-1.02172,-0.0486193,-1.14871
-0.0493164,-0.856445,0.34375,-12.25,-11.8125,96.125,-0.421082,0.255798,-0.469299,0.732788,-1.03022,-0.020336,-1.12769
-0.059082,-0.814941,0.350586,-7.6875,-13.6875,105.563,-0.418579,0.262634,-0.454224,0.741272,-1.03369,0.00910995,-1.10467
-0.0561523,-0.819824,0.367188,-26.25,-17.6875,115.875,-0.418152,0.270996,-0.436523,0.749084,-1.04275,0.0409432,-1.07876
-0.0771484,-0.806152,0.349121,-40.625,-26.375,111.625,-0.420288,0.278931,-0.417908,0.755554,-1.05602,0.070269,-1.05142
-0.0307617,-0.812988,0.344238,-49.25,-39.0625,107.188,-0.424561,0.285156,-0.398438,0.761353,-1.07119,0.0960347,-1.02127
0.0166016,-0.835449,0.368164,-52.9375,-46.1875,119.25,-0.429077,0.29126,-0.376587,0.767639,-1.08636,0.124315,-0.9873
-0.0371094,-0.884277,0.353516,-49.75,-48.25,124.875,-0.432739,0.29718,-0.353699,0.774109,-1.09924,0.154596,-0.951946
-0.0712891,-0.900391,0.366699,-51.8125,-49.875,126.25,-0.436401,0.302917,-0.3302,0.780212,-1.11163,0.185543,-0.916153
-0.120117,-0.879883,0.38623,-51.625,-57.1875,131.563,-0.439819,0.307861,-0.305237,0.786499,-1.12211,0.217477,-0.877382
-0.182617,-0.911133,0.362305,-51.75,-66.3125,130.875,-0.443481,0.311401,-0.279358,0.792664,-1.13097,0.248441,-0.835827
-0.212891,-0.905273,0.349609,-51.125,-73.75,126.063,-0.447327,0.313232,-0.253418,0.798462,-1.13782,0.277016,-0.792451
-0.203613,-0.92627,0.333496,-52,-74.875,123.125,-0.451294,0.314514,-0.227661,0.803467,-1.14407,0.304608,-0.749226
-0.205078,-0.922852,0.35498,-53.75,-75.125,119.688,-0.455322,0.315186,-0.202148,0.807739,-1.14955,0.331107,-0.706056
-0.222656,-0.931152,0.375977,-49.5,-74.875,118.813,-0.458496,0.31543,-0.17688,0.811768,-1.15244,0.357479,-0.662795
-0.225586,-0.911133,0.36377,-47.8125,-75.5,111.5,-0.461548,0.314697,-0.152649,0.815247,-1.15384,0.381381,-0.620134
-0.195313,-0.925781,0.358398,-50.875,-73.625,105.875,-0.465088,0.313599,-0.12915,0.817688,-1.1559,0.403586,-0.578602
-0.166016,-0.954102,0.358887,-52.6875,-69.625,103.875,-0.46875,0.312622,-0.106262,0.819275,-1.1584,0.425335,-0.538563
-0.155762,-0.976074,0.327637,-50.5,-65.875,97.1875,-0.473755,0.309631,-0.0863037,0.819885,-1.16232,0.440012,-0.501438
-0.148438,-0.949707,0.34082,-48.25,-59.9375,88.625,-0.478394,0.306396,-0.0681763,0.820129,-1.16558,0.452638,-0.467138
-0.150391,-0.938477,0.368164,-48.75,-49.8125,82.1875,-0.48291,0.303772,-0.0518799,0.819641,-1.16975,0.464372,-0.437039
-0.148926,-0.970215,0.38623,-48.25,-40.1875,79.25,-0.487305,0.30188,-0.0370483,0.818542,-1.17488,0.475851,-0.410666
-0.202148,-0.962402,0.366211,-49.25,-28.6875,69.5,-0.492126,0.301208,-0.024231,0.816345,-1.183,0.486948,-0.390044
-0.259766,-0.907715,0.483398,-50.6875,-20.1875,63.25,-0.495911,0.301147,-0.0125122,0.814392,-1.18959,0.498484,-0.371776
-0.416504,-2.30225,0.424316,-31.625,-43.25,20.9375,-0.505981,0.291626,-0.00976563,0.811646,-1.20386,0.481954,-0.358584
-0.615234,-0.355957,0.379395,16.125,-60.125,-25.1875,-0.501953,0.283264,-0.00628662,0.817139,-1.18397,0.474193,-0.337565
0.105469,-0.606445,0.352051,-34.375,-27.625,19.75,-0.506226,0.276978,-0.00201416,0.816711,-1.18734,0.467193,-0.323376
-0.543945,-1.13525,0.241211,-43.1875,-32.3125,30.9375,-0.512756,0.27533,0.00683594,0.813171,-1.20021,0.472137,-0.30947
-0.501465,-0.905273,0.382813,-11.625,-43.25,22.3125,-0.513,0.271057,0.0144653,0.814331,-1.19483,0.473835,-0.290116
-0.453613,-0.76416,0.37793,-2.1875,-42.3125,26.6875,-0.511292,0.267334,0.0222778,0.816406,-1.18501,0.477193,-0.270077
-0.433594,-0.797852,0.374023,-12.8125,-43.125,43.6875,-0.510559,0.264709,0.0328369,0.817383,-1.1781,0.485068,-0.247384
-0.499023,-0.812988,0.297363,-17.9375,-37.125,46.25,-0.511047,0.263733,0.0437012,0.816895,-1.17573,0.49559,-0.227215
-0.506836,-0.864258,0.292969,-13.4375,-33.875,50.5,-0.510986,0.263489,0.0544434,0.816406,-1.17258,0.507355,-0.207873
-0.574707,-0.841309,0.362305,-10.1875,-30,48.1875,-0.509766,0.263855,0.0647583,0.816284,-1.16695,0.51989,-0.189273
-0.571777,-0.731934,0.381836,-8.3125,-27.75,44.5625,-0.507751,0.264343,0.0745239,0.816528,-1.15935,0.532126,-0.17112
-0.580078,-0.696289,0.432617,-12.375,-26.75,40.875,-0.505981,0.264465,0.0841064,0.81665,-1.15198,0.543417,-0.152775
-0.557617,-0.714355,0.376953,-16.8125,-21.125,28.875,-0.506104,0.264099,0.0913086,0.815918,-1.14978,0.550824,-0.139312
-0.549805,-0.786133,0.373047,-16.75,-24.125,21.625,-0.506836,0.26239,0.0974121,0.815308,-1.14833,0.554598,-0.126363
-0.530762,-0.783203,0.368652,-9.75,-21.8125,17.3125,-0.506958,0.260559,0.102234,0.815247,-1.14557,0.556828,-0.115096
-0.542969,-0.78125,0.395508,-3.1875,-22.6875,15.9375,-0.505981,0.258545,0.106689,0.815918,-1.13983,0.558446,-0.103404
-0.549805,-0.707031,0.381348,-6,-20.75,12.6875,-0.505249,0.256897,0.110962,0.816284,-1.1351,0.560404,-0.0927408
-0.570313,-0.782715,0.364746,-12.5,-19.1875,11.5625,-0.506104,0.255127,0.11499,0.815796,-1.13463,0.561737,-0.083545
-0.574219,-0.774414,0.390137,-5.75,-15.25,8.3125,-0.505981,0.253784,0.117981,0.815857,-1.13223,0.562728,-0.0761071
-0.563965,-0.775879,0.398438,-1.875,-11.1875,5.5,-0.505432,0.252686,0.119995,0.816223,-1.1292,0.563081,-0.0704759
-0.53418,-0.755859,0.399902,0.0625,-7.6875,1.3125,-0.504822,0.251587,0.120972,0.816772,-1.12636,0.56228,-0.066715
-0.519531,-0.761719,0.40625,-2.5625,-3.6875,-2.4375,-0.504883,0.250549,0.121033,0.817078,-1.1257,0.560549,-0.0652326
-0.531738,-0.763672,0.382324,-10.25,-1.625,-2.8125,-0.506226,0.249756,0.121277,0.816467,-1.12858,0.559334,-0.0647317
-0.522949,-0.797852,0.376465,-12.875,-2.75,-0.0625,-0.508057,0.248901,0.121887,0.815491,-1.13259,0.55837,-0.0638513
-0.516602,-0.79834,0.37793,-10,-1.6875,3.375,-0.509277,0.248413,0.122803,0.814758,-1.13518,0.558453,-0.0624328
-0.537598,-0.765625,0.382324,-4.8125,2.5625,1.4375,-0.509705,0.248779,0.123047,0.814331,-1.13653,0.559323,-0.0628134
-0.546387,-0.743652,0.37207,-6.75,4.9375,-3.9375,-0.51062,0.249146,0.122559,0.813721,-1.13942,0.559345,-0.0649119
-0.585938,-0.763184,0.351563,-7.4375,3.75,-9.4375,-0.512024,0.249146,0.121521,0.812988,-1.14351,0.558068,-0.0678919
-0.599609,-0.815918,0.321777,-8.5,0.125,-8,-0.513855,0.24884,0.120972,0.812012,-1.14835,0.556769,-0.0698774
-0.574219,-0.820801,0.321289,-5.4375,-0.4375,-4.875,-0.515198,0.248535,0.120605,0.81134,-1.15183,0.555731,-0.0711419
-0.538086,-0.808594,0.334473,-2.875,0.1875,-3.0625,-0.51593,0.24823,0.120178,0.810974,-1.15365,0.554624,-0.0720738
-0.518555,-0.823242,0.360352,-2.0625,0.4375,-1.3125,-0.516418,0.247864,0.119812,0.810852,-1.15479,0.553547,-0.0725996
-0.510254,-0.804688,0.367188,0.0625,1.5,-0.3125,-0.516357,0.247742,0.119507,0.810974,-1.15462,0.552998,-0.0729395
-0.526367,-0.79541,0.357422,1.5,0.625,0.4375,-0.516113,0.247803,0.119385,0.811096,-1.15404,0.552969,-0.0730696
-0.540039,-0.783203,0.347656,2.1875,1.3125,0.3125,-0.515808,0.248169,0.119263,0.811218,-1.15356,0.553505,-0.0735595
-0.543945,-0.784668,0.355469,2.3125,0.9375,0.6875,-0.515381,0.248474,0.119263,0.811401,-1.15267,0.554074,-0.0736546
-0.556152,-0.783203,0.362793,2.1875,0.8125,1,-0.514893,0.24884,0.119324,0.811584,-1.15163,0.554817,-0.073679
-0.55957,-0.786133,0.353027,3.125,-0.6875,-0.625,-0.514343,0.248962,0.119324,0.81189,-1.15026,0.555075,-0.0734306
-0.548828,-0.787598,0.358398,3,-1.625,-1.6875,-0.513916,0.248779,0.119202,0.812256,-1.14902,0.554672,-0.0730696
-0.541992,-0.775391,0.356934,3.5,-1.75,-2.0625,-0.513367,0.248535,0.118958,0.812683,-1.14741,0.554006,-0.0727701
-0.532715,-0.785645,0.369629,4.1875,-2.6875,-2.625,-0.512695,0.247925,0.118713,0.813354,-1.14522,0.552749,-0.0718622
-0.541504,-0.78125,0.368652,3,-2.5625,-3.1875,-0.512207,0.247437,0.118408,0.813843,-1.14362,0.551597,-0.0713858
-0.548828,-0.77832,0.35498,1,-4.1875,-4.0625,-0.512146,0.246704,0.118286,0.814148,-1.14293,0.550211,-0.0705552
-0.54248,-0.789551,0.359375,-2.375,-5.375,-4.5625,-0.512512,0.245544,0.118286,0.814209,-1.14297,0.548134,-0.0692659
-0.537598,-0.791992,0.354492,-2.625,-5.6875,-4.1875,-0.513,0.244446,0.118347,0.81427,-1.14342,0.546282,-0.0680121
-0.531738,-0.808105,0.361328,-0.1875,-7.1875,-3.6875,-0.513123,0.243042,0.118469,0.814575,-1.14261,0.543962,-0.0659817
-0.536133,-0.797852,0.362305,-0.0625,-6.8125,-4.0625,-0.513123,0.241821,0.11853,0.814941,-1.14166,0.54192,-0.0642168
-0.533203,-0.814941,0.350586,-0.125,-6,-4.8125,-0.513428,0.240601,0.118347,0.815125,-1.14159,0.539567,-0.0631325
-0.53125,-0.811523,0.351563,1.6875,-7.8125,-4.625,-0.513367,0.239197,0.118286,0.815613,-1.1404,0.537083,-0.0613046
-0.539551,-0.811035,0.350586,1.0625,-10.5,-4.1875,-0.513367,0.237488,0.118652,0.81604,-1.139,0.534515,-0.0583551
-0.509766,-0.820313,0.379395,1.125,-12,-1.625,-0.513062,0.235474,0.119263,0.816711,-1.13652,0.531708,-0.054345
-0.492676,-0.800293,0.39209,3.9375,-10.8125,-0.25,-0.512207,0.233765,0.119934,0.817688,-1.13285,0.529562,-0.0502332
-0.489746,-0.79834,0.403809,7.6875,-10,0,-0.510681,0.232178,0.120422,0.81897,-1.12752,0.5274,-0.0461833
-0.517578,-0.783203,0.394043,8.625,-8.9375,-1.875,-0.509155,0.230957,0.120667,0.820251,-1.12258,0.525634,-0.0430564
-0.525879,-0.775879,0.399902,8.4375,-9,-3,-0.50769,0.229736,0.12085,0.821472,-1.11784,0.523775,-0.0401072
-0.528809,-0.778809,0.404297,7.625,-7.0625,-4.1875,-0.506348,0.228699,0.120789,0.822632,-1.11364,0.521973,-0.0379321
-0.516602,-0.77832,0.411621,9.25,-6.75,-4.3125,-0.504822,0.2276,0.120483,0.823914,-1.109,0.519782,-0.0360237
-0.500977,-0.768066,0.425781,7.125,-4.3125,-3.5625,-0.503479,0.226746,0.120178,0.825012,-1.10502,0.518008,-0.0345673
-0.492188,-0.786133,0.412598,3.25,-3.125,-4.75,-0.502991,0.22583,0.119629,0.825623,-1.10331,0.515817,-0.0340849
-0.510254,-0.784668,0.397949,0.5,-4.1875,-5.8125,-0.502991,0.224854,0.119202,0.825928,-1.10278,0.513628,-0.0336413
-0.513672,-0.804199,0.378906,-1.375,-5.5625,-7.5625,-0.503601,0.223572,0.118652,0.825989,-1.1037,0.510762,-0.0334453
-0.523438,-0.823242,0.361816,-1.3125,-5.1875,-8.5,-0.504456,0.222351,0.117981,0.825928,-1.10535,0.507878,-0.0337049
-0.523926,-0.812988,0.361328,2.375,-5.375,-9.6875,-0.504761,0.22113,0.117004,0.826233,-1.10566,0.504682,-0.0341538
-0.510254,-0.792969,0.385742,5.0625,-8.4375,-10.6875,-0.504333,0.21936,0.11615,0.827087,-1.10367,0.500674,-0.0332108
-0.494141,-0.767578,0.417969,5,-9.4375,-11.875,-0.50354,0.217163,0.115234,0.828186,-1.10046,0.49582,-0.0316456
-0.479492,-0.789063,0.423828,4.8125,-9.8125,-13.375,-0.502991,0.214661,0.114075,0.829407,-1.09788,0.490242,-0.0302873
-0.477051,-0.790039,0.44043,8.1875,-8.3125,-16,-0.501953,0.212219,0.112244,0.830933,-1.09427,0.484043,-0.02996
-0.475586,-0.779297,0.442871,11.0625,-6.5,-20.375,-0.50061,0.209778,0.109558,0.832703,-1.09015,0.476933,-0.0310439
-0.473145,-0.772461,0.445801,8.6875,-2.6875,-26.8125,-0.499878,0.207336,0.105835,0.834229,-1.0879,0.468716,-0.0344234
-0.476074,-0.763672,0.419434,2.625,2.5625,-35.6875,-0.500549,0.205017,0.100586,0.835022,-1.0897,0.459036,-0.0415741
-0.440918,-0.78418,0.434082,4.5,2.1875,-40.75,-0.501099,0.201904,0.0944214,0.836182,-1.09096,0.447027,-0.049304
-0.445313,-0.806641,0.445801,10.75,3.8125,-46.25,-0.500916,0.19873,0.0870972,0.83783,-1.09058,0.433733,-0.0586067
-0.443848,-0.849121,0.390625,5.125,8.5625,-55.1875,-0.502563,0.195557,0.078186,0.83844,-1.09511,0.418633,-0.071699
-0.415039,-0.847656,0.360352,2.8125,10.5625,-61.125,-0.504944,0.192139,0.0682373,0.838684,-1.10146,0.401934,-0.0865793
-0.374512,-0.84375,0.389648,9.125,12.5,-60.3125,-0.506104,0.188782,0.0579224,0.839539,-1.10475,0.385053,-0.101417
-0.347656,-0.850098,0.42334,5.5625,14,-62.625,-0.507446,0.185181,0.0472412,0.84021,-1.1083,0.367331,-0.116577
-0.115723,-0.890137,0.459473,-3.6875,9.25,-78.125,-0.510742,0.177246,0.0336304,0.840576,-1.11464,0.338774,-0.132407
-0.17334,-0.938477,0.486816,5.125,15.6875,-84.5,-0.512634,0.170349,0.0186768,0.841309,-1.11817,0.310759,-0.151007
-0.240723,-0.970215,0.479492,-0.5,15.5,-69.25,-0.514771,0.165588,0.00665283,0.841125,-1.12274,0.289435,-0.166977
-0.144531,-0.983887,0.493164,-5.875,13.5625,-75.3125,-0.517822,0.159241,-0.00646973,0.840515,-1.1287,0.264046,-0.183126
-0.0703125,-0.990723,0.478516,-2.625,13.875,-78.1875,-0.520508,0.152283,-0.0203247,0.839905,-1.13338,0.236856,-0.199526
-0.012207,-0.97168,0.431152,4.8125,17.125,-80.125,-0.522339,0.145386,-0.0351563,0.839478,-1.136,0.208885,-0.2173
0.0371094,-0.935547,0.462891,12.5625,20,-83.75,-0.522583,0.138245,-0.0510864,0.839722,-1.13469,0.179747,-0.236248
0.0761719,-0.911621,0.441406,13.8125,21.4375,-89.4375,-0.522766,0.130798,-0.0679321,0.8396,-1.13301,0.149164,-0.256444
0.121582,-0.890625,0.380371,10,23,-92.25,-0.523804,0.123291,-0.0853271,0.838501,-1.13316,0.117641,-0.277706
0.12207,-0.89209,0.34082,5.375,29.6875,-95.375,-0.525635,0.116882,-0.103394,0.836304,-1.13551,0.0869131,-0.301478
0.0922852,-0.900879,0.348633,2.375,36.875,-94.875,-0.527344,0.112061,-0.121582,0.833374,-1.13797,0.0585791,-0.327195
0.0703125,-0.939941,0.331055,-1.5625,44.75,-94.75,-0.52948,0.109009,-0.140015,0.829529,-1.14201,0.0325877,-0.355345
0.0668945,-0.915527,0.321289,-2.3125,53.625,-100.313,-0.530579,0.107422,-0.159546,0.8255,-1.14404,0.00805042,-0.387004
0.0864258,-0.903809,0.292969,-13.5625,64.6875,-106.563,-0.532898,0.107117,-0.180664,0.819702,-1.14928,-0.0169443,-0.422898
0.0786133,-0.97168,0.349609,-18.75,74.5,-101.563,-0.535156,0.108826,-0.201721,0.813049,-1.15508,-0.0389533,-0.46099
0.0415039,-1.02637,0.339844,-18.9375,83.5,-103.813,-0.536987,0.111755,-0.223755,0.805664,-1.16033,-0.060269,-0.502295
0.0283203,-1.01172,0.304199,-24.0625,89.5625,-105.438,-0.539001,0.115601,-0.246277,0.79718,-1.16634,-0.0812676,-0.54566
0.0258789,-0.983398,0.285156,-34.625,97,-105.125,-0.541809,0.120911,-0.269043,0.787048,-1.17491,-0.101388,-0.59123
0.0126953,-1.03906,0.327148,-34.8125,97.9375,-99.0625,-0.544434,0.127991,-0.290161,0.77655,-1.18423,-0.117434,-0.636152
-0.0253906,-1.09766,0.335449,-27.1875,90.625,-92.8125,-0.545898,0.134766,-0.309265,0.766968,-1.19088,-0.13131,-0.677592
-0.0463867,-1.0874,0.306641,-18.875,85.5,-88.4375,-0.546204,0.141113,-0.327087,0.758118,-1.1947,-0.143847,-0.716677
-0.0483398,-1.05518,0.311035,-13.5,81.8125,-80.5625,-0.54541,0.1474,-0.343506,0.750183,-1.19614,-0.154159,-0.753633
-0.0668945,-1.0415,0.316895,-10.9375,78,-72.3125,-0.543945,0.153931,-0.358337,0.742981,-1.19648,-0.161802,-0.788362
-0.117676,-1.01611,0.30127,-9.125,66.375,-66.75,-0.542542,0.159851,-0.370911,0.736572,-1.19682,-0.167771,-0.818474
-0.0917969,-0.984863,0.302246,-12.75,58.6875,-59.4375,-0.541748,0.165405,-0.381836,0.730286,-1.19852,-0.172993,-0.845179
-0.0888672,-0.916504,0.296387,-18.125,50.4375,-53.25,-0.541748,0.170593,-0.391113,0.724182,-1.20201,-0.177621,-0.868437
-0.0722656,-0.930664,0.298828,-22.5,41.25,-47.6875,-0.542664,0.175354,-0.398743,0.71814,-1.20744,-0.181911,-0.888042
-0.0288086,-0.967285,0.302734,-27.625,35.3125,-47.3125,-0.5448,0.179443,-0.40564,0.71167,-1.21526,-0.187676,-0.90543
0.00537109,-0.962891,0.320801,-24,29.125,-48.75,-0.546692,0.182007,-0.412476,0.705566,-1.22119,-0.195399,-0.921033
0.0390625,-0.9375,0.332031,-15,23,-48.9375,-0.547852,0.1828,-0.41925,0.7005,-1.2239,-0.204697,-0.934749
0.074707,-0.904785,0.313965,-11.875,17.0625,-49.9375,-0.549194,0.18219,-0.425781,0.695618,-1.22575,-0.215877,-0.946399
0.125488,-0.907715,0.304688,-16.125,11,-55.125,-0.551819,0.18042,-0.432373,0.689941,-1.22949,-0.230254,-0.956717
0.268555,-1.20898,0.266113,-30.5,27.25,-47.9375,-0.556091,0.182251,-0.438965,0.681824,-1.24026,-0.242039,-0.970799
0.191895,-1.30469,0.35498,-7.9375,17.6875,16.4375,-0.55542,0.187988,-0.437378,0.681824,-1.24412,-0.231571,-0.974343
0.0424805,-0.998047,0.372559,69.5625,12.125,13.125,-0.544922,0.187134,-0.438171,0.689941,-1.21912,-0.221113,-0.976887
0.166016,-0.803711,0.34082,32.75,-0.25,-0.375,-0.540588,0.184692,-0.43927,0.693359,-1.2069,-0.220597,-0.97713
0.230469,-0.783691,0.425293,-32.4375,0.3125,11.6875,-0.54303,0.1875,-0.437561,0.691711,-1.21521,-0.217537,-0.97644
0.206055,-1.02539,0.431152,-39.9375,7.5,-9.375,-0.546875,0.190674,-0.43811,0.6875,-1.22689,-0.218747,-0.980431
0.230957,-1.08154,0.419922,-11,6.625,0.125,-0.547241,0.192383,-0.438354,0.686523,-1.22927,-0.217327,-0.982759
0.235352,-1.00293,0.426758,7.4375,8,-3.875,-0.545288,0.1922,-0.440063,0.687073,-1.22448,-0.217524,-0.986264
0.231445,-0.914063,0.398926,13.25,5,-8.8125,-0.543091,0.190613,-0.442383,0.687744,-1.21772,-0.220095,-0.98941
0.250977,-0.886719,0.394531,6.5,-0.5625,-4.8125,-0.542114,0.189087,-0.443542,0.688232,-1.21396,-0.22246,-0.990179
0.24707,-0.920898,0.372559,-1.625,-1.625,-3.375,-0.542358,0.188416,-0.44397,0.687927,-1.21382,-0.224223,-0.990215
0.240234,-0.941895,0.348633,-3.3125,-2.5625,-5.8125,-0.543213,0.187744,-0.444336,0.687195,-1.21509,-0.22664,-0.990028
0.246094,-0.950684,0.333496,3.125,-4,-5.625,-0.543518,0.186462,-0.444763,0.687073,-1.21456,-0.22925,-0.989406
0.24707,-0.937012,0.335449,10.8125,-3.5,-4.375,-0.542847,0.184692,-0.445313,0.687683,-1.21131,-0.231516,-0.988624
0.229492,-0.904785,0.329102,9.3125,-2.125,-2.5,-0.542053,0.183533,-0.445618,0.688416,-1.20839,-0.232492,-0.988088
0.23291,-0.901367,0.319824,5,-1.5,-2.6875,-0.54187,0.182739,-0.445923,0.688538,-1.20719,-0.233741,-0.987831
0.237793,-0.916992,0.332031,2.6875,-0.3125,-2.5,-0.541809,0.182312,-0.446228,0.688538,-1.20663,-0.23463,-0.987994
0.244141,-0.928711,0.34375,2.8125,-0.1875,-1.4375,-0.541687,0.181885,-0.446472,0.688599,-1.20593,-0.235372,-0.988035
0.243652,-0.931641,0.362305,6.0625,-0.3125,-0.375,-0.540955,0.181274,-0.446716,0.689148,-1.20366,-0.235631,-0.987972
0.224121,-0.928711,0.369629,6.6875,-0.6875,1.0625,-0.540039,0.180847,-0.446716,0.690002,-1.2012,-0.235078,-0.987689
0.233887,-0.937012,0.355469,5.125,-1.5625,2.8125,-0.53949,0.180603,-0.44635,0.690735,-1.19978,-0.234241,-0.986799
0.231445,-0.944336,0.367188,5.1875,-3.9375,2.6875,-0.539063,0.180115,-0.44574,0.691589,-1.19844,-0.23355,-0.985131
0.243652,-0.951172,0.375977,7.9375,-4.875,5.0625,-0.538269,0.179321,-0.444946,0.692932,-1.19601,-0.232578,-0.98284
0.260742,-0.898438,0.380859,7.875,-3.0625,6.4375,-0.537292,0.178589,-0.444397,0.694214,-1.19319,-0.231651,-0.981124
0.244141,-0.889648,0.367188,5.4375,-3.375,3.75,-0.536743,0.177917,-0.44397,0.695129,-1.19141,-0.231301,-0.979669
0.273926,-0.921875,0.365234,-3.9375,-3,5.25,-0.537415,0.177979,-0.443115,0.695068,-1.19306,-0.230905,-0.977876
0.269043,-0.921387,0.376465,-5.125,-2.625,6.25,-0.538086,0.178223,-0.4422,0.695068,-1.19492,-0.230156,-0.976201
0.251953,-0.939941,0.363281,1.5,-4.9375,5.6875,-0.538208,0.177917,-0.441162,0.69574,-1.19506,-0.22931,-0.973804
0.242676,-0.918457,0.362305,5.3125,-7.75,4.125,-0.538086,0.17688,-0.440186,0.696716,-1.19396,-0.229248,-0.970759
0.248047,-0.916504,0.360352,4.125,-8,4,-0.538208,0.175781,-0.439148,0.697571,-1.19338,-0.229475,-0.967491
0.239258,-0.921387,0.366699,1.25,-5.0625,6,-0.538269,0.175537,-0.438049,0.698303,-1.19344,-0.228401,-0.965057
0.226563,-0.916992,0.379883,-1.5,-1,10.5625,-0.538025,0.176453,-0.436646,0.699097,-1.19387,-0.225032,-0.963315
0.197754,-0.898438,0.358887,-4,-3.5,7.625,-0.538452,0.177246,-0.435181,0.699524,-1.19574,-0.222504,-0.961244
0.220215,-0.939941,0.357422,-9,-6.25,8.1875,-0.539795,0.177979,-0.433289,0.699463,-1.19967,-0.22058,-0.958079
0.226563,-0.973633,0.359375,-6.6875,-4.6875,10.9375,-0.54071,0.179077,-0.431213,0.699707,-1.20296,-0.217429,-0.955036
0.203613,-0.96582,0.383789,2.5,-3.5,14,-0.540039,0.179871,-0.429199,0.701294,-1.20238,-0.212889,-0.952121
0.182129,-0.931641,0.397949,0.4375,-2.5625,16.1875,-0.539246,0.181213,-0.426941,0.702942,-1.20204,-0.207166,-0.949355
0.158691,-0.943848,0.383789,-7.25,-4.8125,16.8125,-0.539551,0.183105,-0.424011,0.703979,-1.20475,-0.201099,-0.945716
0.151367,-1.00244,0.371582,-5.75,-9,18.75,-0.540161,0.184753,-0.420349,0.705261,-1.208,-0.194742,-0.940369
0.138184,-1.03369,0.378906,5.875,-11.8125,22.125,-0.539429,0.185669,-0.416199,0.708008,-1.20755,-0.1872,-0.933507
0.0791016,-1.03369,0.400391,15.8125,-14.75,26.3125,-0.53717,0.186279,-0.411438,0.712341,-1.20344,-0.177567,-0.925413
0.043457,-1.01709,0.412598,14.3125,-16.3125,32.5,-0.534851,0.187439,-0.405579,0.717163,-1.19977,-0.165758,-0.915884
0.0219727,-1.02295,0.434082,14.75,-18.875,38.75,-0.532166,0.188904,-0.398682,0.722595,-1.1956,-0.151911,-0.904781
0.0131836,-1.0542,0.440918,18.625,-22.6875,47.25,-0.529053,0.19043,-0.390442,0.728943,-1.19059,-0.135922,-0.891317
-0.00488281,-1.06982,0.453613,23.8125,-26.25,56,-0.525208,0.191833,-0.380859,0.736389,-1.18388,-0.117804,-0.875333
-0.0395508,-1.07861,0.445801,28.625,-27.375,63.75,-0.52063,0.193726,-0.370178,0.744568,-1.17598,-0.0971206,-0.85799
-0.078125,-1.07227,0.455078,32.875,-28.0625,70.75,-0.515076,0.195923,-0.358521,0.75354,-1.16615,-0.0741268,-0.839308
-0.100586,-1.06738,0.459473,35.875,-30.25,81.5625,-0.50885,0.198547,-0.345276,0.763184,-1.15516,-0.04835,-0.818218
-0.10498,-1.0791,0.455078,36.5,-33.375,90.4375,-0.502563,0.201294,-0.330566,0.773071,-1.14405,-0.0210336,-0.794604
-0.104492,-1.07813,0.438477,40.3125,-35.4375,97.625,-0.49585,0.203857,-0.314941,0.783142,-1.13164,0.00697156,-0.769094
-0.0869141,-1.06152,0.433105,46.875,-39.5,105.563,-0.487915,0.2052,-0.298584,0.794189,-1.1153,0.0345753,-0.740827
-0.0854492,-1.01563,0.421875,49.125,-41.5625,111.25,-0.47937,0.206421,-0.28125,0.805298,-1.0972,0.0628563,-0.710444
-0.0947266,-0.984863,0.387207,44.5,-42.75,115.875,-0.471191,0.207947,-0.262878,0.815857,-1.07985,0.091706,-0.678397
-0.0869141,-0.958008,0.364258,38.1875,-42.0625,121.313,-0.463501,0.210205,-0.243408,0.825623,-1.06377,0.121761,-0.645063
-0.0878906,-0.929199,0.36084,38.9375,-42,126.625,-0.455322,0.212646,-0.223206,0.835205,-1.04632,0.152537,-0.610349
-0.106445,-0.87207,0.364746,38.125,-43.875,129.188,-0.44696,0.214905,-0.202332,0.844421,-1.02776,0.183093,-0.573879
-0.0996094,-0.821777,0.345703,31,-43.5625,131.688,-0.43927,0.217529,-0.180725,0.852661,-1.01036,0.213809,-0.536277
-0.0898438,-0.775879,0.34375,24.625,-41.3125,134.063,-0.432129,0.220642,-0.15863,0.859863,-0.993886,0.244784,-0.498078
-0.0952148,-0.747559,0.351563,20.3125,-36.875,134.5,-0.425171,0.224365,-0.136597,0.86615,-0.977691,0.276005,-0.460312
-0.112305,-0.722656,0.344727,15.0625,-35.625,131.938,-0.418884,0.228149,-0.114807,0.871338,-0.96238,0.30617,-0.422775
-0.0991211,-0.697754,0.33252,8.5625,-32.25,127.813,-0.413513,0.232056,-0.0935669,0.875427,-0.948692,0.335153,-0.38623
-0.120117,-0.657715,0.365234,1.375,-27.6875,120,-0.409119,0.236084,-0.0734863,0.878296,-0.936914,0.362458,-0.351871
-0.150391,-0.660645,0.405762,-5.3125,-24,115.625,-0.405701,0.240356,-0.0540771,0.880188,-0.927178,0.388974,-0.319036
-0.186523,-0.647461,0.419922,-13.75,-21.625,105.813,-0.403687,0.244263,-0.0358887,0.88092,-0.920156,0.413019,-0.288333
-0.184082,-0.626953,0.431152,-24.3125,-18.875,94.75,-0.404236,0.246704,-0.0198364,0.880493,-0.918284,0.431689,-0.261016
-0.180664,-0.621094,0.437988,-30.4375,-14.1875,85.5,-0.405945,0.248962,-0.00537109,0.879333,-0.9193,0.448352,-0.236992
-0.205078,-0.639648,0.456055,-32.5625,-10.8125,72.625,-0.408386,0.250732,0.00695801,0.877625,-0.922192,0.462046,-0.216835
-0.217285,-0.650879,0.455078,-37.9375,-7.375,57.1875,-0.412292,0.251953,0.0169678,0.875305,-0.928949,0.472443,-0.201316
-0.212402,-0.662109,0.4375,-48.375,0.3125,41.75,-0.418579,0.253052,0.024353,0.871826,-0.942299,0.479822,-0.192125
-0.262207,-0.70752,0.427734,-65.3125,9.25,24.0625,-0.428345,0.254456,0.0292358,0.866516,-0.965324,0.484794,-0.190262
-0.274902,-0.75,0.475586,-74.0625,13.5,16.125,-0.439392,0.255554,0.0328979,0.860535,-0.991918,0.48786,-0.191305
-0.321777,-0.868164,0.518066,-67.3125,11.4375,9.75,-0.449768,0.255737,0.0353394,0.85498,-1.01677,0.48826,-0.193261
-0.396973,-0.930176,0.48877,-67.5,8.9375,-4.5,-0.460876,0.255005,0.0360107,0.849243,-1.04349,0.485121,-0.197858
-1.07813,-3.19629,0.669922,47.9375,-89.0625,80.25,-0.449524,0.248474,0.0529175,0.856384,-1.00487,0.492867,-0.151266
-1.05566,-0.54834,0.228516,14.9375,-53.4375,-125,-0.451965,0.232605,0.0387573,0.860291,-1.0042,0.450316,-0.160156
0.507813,-0.416992,0.13916,-16.5625,-5.0625,7.5,-0.456482,0.226013,0.0369873,0.859741,-1.0113,0.436085,-0.15814
-0.657227,-1.37012,0.338379,-33.6875,-15.9375,18.5,-0.464966,0.226013,0.041687,0.85498,-1.03065,0.439227,-0.154069
-0.400879,-0.869141,0.245117,-32.25,-27.5625,-0.9375,-0.471924,0.221985,0.0446167,0.852051,-1.04419,0.433882,-0.147657
-0.405273,-1.03467,0.192383,-7.3125,-15.125,9.5,-0.476135,0.220703,0.0466309,0.849915,-1.05314,0.432964,-0.144717
-0.443359,-0.979492,0.322754,-17.75,-20.0625,21.8125,-0.479858,0.219543,0.0516968,0.847839,-1.06019,0.435528,-0.136128
-0.369141,-0.927734,0.369629,-16.1875,-14.9375,35.125,-0.482239,0.219482,0.0579224,0.84613,-1.06438,0.441489,-0.126054
-0.371094,-0.922852,0.461914,-6.5625,-11.625,44.1875,-0.482056,0.220337,0.0648804,0.845459,-1.06254,0.450175,-0.114338
-0.420898,-0.793945,0.449707,-2.3125,-3.875,40.625,-0.480774,0.222839,0.071106,0.845032,-1.05921,0.461157,-0.105268
-0.431641,-0.799805,0.43457,-2.5625,-3.3125,44.6875,-0.479553,0.225769,0.0778809,0.84436,-1.05609,0.473447,-0.0956716
-0.459473,-0.748047,0.429199,-2.4375,-3.8125,42,-0.47821,0.228699,0.0844727,0.843689,-1.05263,0.485547,-0.0862603
-0.429199,-0.830566,0.453613,-1.625,-3.3125,44.6875,-0.476929,0.231201,0.0909424,0.843079,-1.04901,0.496769,-0.0765029
-0.456055,-0.760254,0.448242,6.5625,-1,42.125,-0.474243,0.234314,0.0967407,0.843079,-1.04236,0.508477,-0.0677392
-0.489258,-0.743164,0.445313,6.8125,0.75,39.1875,-0.471619,0.237732,0.102173,0.842957,-1.03611,0.520332,-0.0599486
-0.516602,-0.713867,0.479004,-1.1875,-0.9375,36.4375,-0.469727,0.240601,0.107788,0.842468,-1.03119,0.531305,-0.0515427
-0.541016,-0.72168,0.419434,-8.0625,0.875,29.1875,-0.469788,0.243347,0.112549,0.841064,-1.03149,0.541112,-0.0458916
-0.55127,-0.688965,0.393555,-12.25,1.8125,24.4375,-0.470581,0.245972,0.11676,0.839294,-1.03378,0.550104,-0.0416637
-0.584473,-0.709473,0.406738,-6.3125,4,13.3125,-0.471008,0.248169,0.119019,0.838074,-1.03554,0.556344,-0.0403868
-0.622559,-0.680664,0.418457,-3.0625,4.75,0.1875,-0.471191,0.249878,0.119446,0.837402,-1.03705,0.559852,-0.0418287
-0.625,-0.712891,0.40625,-5.9375,4.4375,-12,-0.472595,0.250366,0.118103,0.83667,-1.04157,0.559282,-0.046047
-0.60498,-0.746582,0.409668,-7.5,3.5,-16.125,-0.474548,0.250122,0.116089,0.835938,-1.04725,0.556659,-0.0510262
-0.59082,-0.764648,0.404785,-3.75,3.625,-13.3125,-0.475891,0.25,0.114258,0.835388,-1.05129,0.554411,-0.0553643
-0.572266,-0.763184,0.396973,-3.3125,-1.1875,-7.1875,-0.476929,0.249573,0.113525,0.835022,-1.05395,0.552814,-0.0569787
-0.541016,-0.783203,0.421875,-3.4375,-5.6875,-4.25,-0.477722,0.248352,0.113464,0.835022,-1.0552,0.550564,-0.0561126
-0.498535,-0.773438,0.387207,-4.3125,-5.3125,-2.9375,-0.478821,0.24707,0.113403,0.834717,-1.05713,0.548101,-0.0554301
-0.483887,-0.80127,0.415039,-4.4375,-6.0625,0,-0.479797,0.245605,0.113708,0.834595,-1.05854,0.54577,-0.0537045
-0.490234,-0.789063,0.40918,-2.1875,-5.0625,0.5,-0.480347,0.244507,0.113953,0.834534,-1.05908,0.544011,-0.0522677
-0.507813,-0.792969,0.419434,-3.25,-6.5,1.3125,-0.480896,0.243347,0.114624,0.834473,-1.05946,0.542616,-0.0499395
-0.508301,-0.793945,0.391113,-3.8125,-5.8125,0.4375,-0.481812,0.242371,0.115051,0.834167,-1.061,0.541266,-0.0485692
-0.527832,-0.779297,0.405273,-2.375,-3.5625,-0.25,-0.482361,0.241821,0.115356,0.833984,-1.06195,0.540585,-0.047696
-0.538574,-0.763184,0.408203,-2.6875,-2.3125,0,-0.482788,0.241638,0.115723,0.833679,-1.06277,0.540584,-0.047101
-0.546387,-0.777344,0.413086,-6.5,-3.6875,-1.4375,-0.483887,0.241028,0.11615,0.833191,-1.06507,0.539901,-0.0463124
-0.540039,-0.788574,0.412598,-7.9375,-4.6875,-0.375,-0.485107,0.240295,0.116821,0.832581,-1.06749,0.539226,-0.0450126
-0.531738,-0.777344,0.405273,-5.625,-3.5,0.75,-0.486023,0.239807,0.117432,0.832153,-1.06935,0.538981,-0.0438965
-0.521484,-0.77832,0.40332,-4.5625,-5.1875,1,-0.486694,0.239075,0.118164,0.831848,-1.07032,0.538405,-0.0420888
-0.52832,-0.756836,0.424805,-3.4375,-6.4375,0.1875,-0.486938,0.238159,0.118958,0.831848,-1.07005,0.537598,-0.0396276
-0.524902,-0.787109,0.417969,-5.125,-6.25,0.5625,-0.48761,0.237183,0.119751,0.831604,-1.07085,0.536659,-0.0374
-0.51416,-0.788086,0.419434,-3.75,-4.375,1.5,-0.488159,0.236511,0.120361,0.831421,-1.07164,0.536105,-0.0357973
-0.518555,-0.779785,0.407715,-2.9375,0.5,1.625,-0.488647,0.236633,0.120605,0.831055,-1.0729,0.536554,-0.0358449
-0.528809,-0.775879,0.40625,-1.3125,-1,2.125,-0.488831,0.236755,0.121094,0.830811,-1.07328,0.537263,-0.0352239
-0.53418,-0.775391,0.405273,0.1875,-3.75,0.25,-0.488831,0.236328,0.12146,0.830872,-1.07286,0.536887,-0.0340039
-0.526855,-0.773926,0.402832,-1.375,-5.0625,-0.75,-0.489136,0.235657,0.121826,0.830872,-1.0731,0.536092,-0.0326826
-0.523438,-0.784668,0.404297,-1.1875,-4.4375,-1.4375,-0.489441,0.234863,0.122009,0.830872,-1.07328,0.534854,-0.0315689
-0.51416,-0.78125,0.410645,2.375,-3.625,-2,-0.489258,0.234192,0.121826,0.831238,-1.07244,0.533497,-0.0309297
-0.525879,-0.771973,0.404297,4.3125,-2.25,-4.625,-0.488892,0.233704,0.121216,0.831665,-1.07137,0.53199,-0.0312067
-0.516113,-0.776855,0.414063,5.1875,-2.875,-5.8125,-0.488403,0.23291,0.120361,0.832275,-1.06985,0.529684,-0.031479
-0.512207,-0.767578,0.412598,5.625,-2.5,-7.1875,-0.487854,0.232117,0.119324,0.832947,-1.06824,0.52719,-0.0320549
-0.507324,-0.759277,0.414063,4.625,-1.375,-9.3125,-0.487549,0.231323,0.11792,0.833557,-1.06741,0.524321,-0.0334801
-0.5,-0.779297,0.427246,2.375,-1.3125,-10.5625,-0.487671,0.230164,0.116333,0.834045,-1.06751,0.520597,-0.0350891
-0.499512,-0.789551,0.431152,2.625,-1.25,-12.875,-0.487793,0.228882,0.11438,0.834595,-1.06763,0.516264,-0.0372324
-0.506348,-0.784668,0.418457,1.3125,-1.4375,-13.75,-0.48822,0.2276,0.112488,0.834961,-1.06852,0.511989,-0.0394612
-0.508789,-0.791016,0.416016,-0.5625,-2.125,-12.375,-0.488892,0.226379,0.110901,0.835083,-1.06996,0.508111,-0.0413635
-0.498535,-0.813965,0.420898,0,-3.25,-9.1875,-0.48938,0.225098,0.109741,0.835327,-1.07078,0.504615,-0.0422546
-0.498047,-0.805176,0.430664,1.6875,-3.5625,-6.5,-0.489441,0.22406,0.109009,0.835693,-1.07052,0.50202,-0.0423716
-0.492676,-0.790527,0.41748,0.5625,-2.8125,-5.125,-0.489624,0.223267,0.108459,0.835876,-1.07066,0.500034,-0.0425347
-0.495117,-0.792969,0.417969,-0.9375,-4.3125,-3.5,-0.489929,0.222412,0.108337,0.835938,-1.07094,0.498377,-0.041915
-0.491211,-0.788574,0.408203,0.0625,-5.8125,-3.125,-0.490112,0.221436,0.108398,0.83606,-1.07077,0.496694,-0.0407336
-0.487793,-0.793945,0.415039,0.1875,-6.8125,-3.4375,-0.490234,0.220215,0.108459,0.836304,-1.0703,0.494594,-0.0392116
-0.487793,-0.79541,0.422363,-0.625,-7.1875,-4.6875,-0.490479,0.218811,0.108398,0.836548,-1.07008,0.492041,-0.037772
-0.484863,-0.806641,0.416016,0.375,-7.125,-6.1875,-0.490723,0.217346,0.108032,0.836792,-1.0699,0.489036,-0.036838
-0.474609,-0.799316,0.419922,0.6875,-7.0625,-6.3125,-0.490906,0.215759,0.107666,0.837158,-1.06953,0.485846,-0.0357068
-0.471191,-0.799316,0.433105,0.4375,-6.625,-6.3125,-0.490967,0.214233,0.107239,0.837524,-1.06888,0.482678,-0.0347042
-0.466797,-0.791992,0.433594,0.6875,-7,-5.875,-0.490967,0.212708,0.106934,0.837952,-1.06806,0.479662,-0.0334332
-0.46582,-0.781738,0.443848,-0.1875,-8.4375,-5.5,-0.490967,0.210999,0.106873,0.83844,-1.06711,0.4766,-0.0314878
-0.456543,-0.781738,0.443359,-1.9375,-8.75,-6.4375,-0.491211,0.209106,0.106812,0.838806,-1.06667,0.473196,-0.0294862
-0.461914,-0.812988,0.444824,-3.6875,-8.3125,-6,-0.491821,0.207214,0.106689,0.838867,-1.06713,0.469673,-0.0278472
-0.462402,-0.814941,0.438477,-1.4375,-7.8125,-4.9375,-0.492188,0.205627,0.106689,0.839111,-1.0672,0.46689,-0.0261693
-0.468262,-0.800293,0.436523,-1.1875,-6.6875,-4.25,-0.492371,0.204346,0.106689,0.839294,-1.06693,0.46461,-0.0247677
-0.464355,-0.796387,0.435059,-2.625,-6.125,-5,-0.492859,0.203125,0.106628,0.839294,-1.0675,0.462368,-0.0237327
-0.454102,-0.79248,0.438477,-2.25,-5.5625,-6.25,-0.493225,0.201782,0.106323,0.839417,-1.06776,0.459658,-0.0229314
-0.452148,-0.79541,0.443359,-1.8125,-6.3125,-8.125,-0.493652,0.200134,0.105774,0.839661,-1.06811,0.456179,-0.0222412
-0.461914,-0.798828,0.443359,-2.125,-6.5625,-10.875,-0.494141,0.198364,0.104919,0.839905,-1.06862,0.452154,-0.0220083
-0.439941,-0.80127,0.431152,-2.8125,-6.5,-12.875,-0.494934,0.196289,0.103699,0.840088,-1.06985,0.447206,-0.0222588
-0.444824,-0.805176,0.433105,-2.3125,-6.75,-15.4375,-0.495667,0.194092,0.102173,0.840332,-1.07094,0.441715,-0.0228903
-0.46875,-0.808105,0.419434,-0.375,-7.4375,-19.375,-0.496399,0.191772,0.10022,0.840698,-1.0721,0.435588,-0.0241383
-0.436523,-0.788086,0.42041,1.875,-8.375,-22.9375,-0.496765,0.188843,0.0976563,0.841431,-1.07217,0.427746,-0.025587
-0.441895,-0.791016,0.425781,0.125,-7.625,-31.1875,-0.49762,0.185425,0.0939331,0.842102,-1.07352,0.417831,-0.0288229
-0.42334,-0.797852,0.438965,-4.5,-3.75,-44.5625,-0.499512,0.181274,0.0880737,0.842529,-1.0776,0.404377,-0.0355632
-0.375488,-0.823242,0.455078,-8.5,-2.0625,-48.8125,-0.502075,0.176453,0.0812988,0.842712,-1.08317,0.388752,-0.043414
-0.377441,-0.874023,0.458496,-3.8125,-1.375,-48,-0.504089,0.171875,0.0744019,0.843079,-1.08745,0.373438,-0.0513906
-0.374023,-0.842773,0.457031,2.3125,-3.3125,-44.25,-0.504822,0.167664,0.0682373,0.843994,-1.08855,0.35961,-0.057826
-0.356445,-0.82959,0.439941,-1.8125,-5.25,-41.4375,-0.506165,0.16333,0.0627441,0.844482,-1.09094,0.346254,-0.0631592
-0.335938,-0.864746,0.440918,-2.25,-5.5,-39.875,-0.507568,0.158997,0.0574341,0.844849,-1.09342,0.333084,-0.0681528
-0.320801,-0.884277,0.435059,-1.4375,-3.25,-40.4375,-0.509033,0.154907,0.0517578,0.845093,-1.0962,0.319946,-0.0740476
-0.303223,-0.921387,0.416016,-0.9375,0.375,-40.5625,-0.510803,0.151245,0.0455933,0.845032,-1.09996,0.306992,-0.0813464
-0.296875,-0.946777,0.371094,-1.5625,5.0625,-40.625,-0.513062,0.148376,0.0390015,0.844482,-1.10526,0.294878,-0.0904004
-0.274902,-0.943359,0.356445,1.0625,9.25,-40.4375,-0.515076,0.146118,0.0319214,0.843994,-1.11028,0.283304,-0.100824
-0.237793,-0.911621,0.408691,13.625,12.8125,-34.375,-0.514465,0.144592,0.0250854,0.844849,-1.10917,0.273526,-0.110723
-0.216309,-0.884277,0.419434,10.75,23,-32.0625,-0.514038,0.144714,0.0177002,0.845276,-1.10928,0.265969,-0.1235
-0.186035,-0.864258,0.390137,-6.8125,24.4375,-39.5,-0.516479,0.144165,0.00939941,0.843994,-1.11604,0.25584,-0.137964
0.0332031,-0.885742,0.494141,-7.5625,23.375,-64.625,-0.519043,0.138916,-0.00372314,0.843384,-1.12156,0.232544,-0.155273
-0.129395,-1.0083,0.535156,-0.375,29.5,-64.4375,-0.520264,0.136169,-0.0166016,0.842896,-1.12474,0.213906,-0.174517
-0.150391,-0.986328,0.523438,-2.4375,28.25,-51.125,-0.521301,0.134827,-0.0270996,0.842163,-1.12772,0.200172,-0.191172
-0.0532227,-0.956055,0.527832,-1.5,33.375,-64.9375,-0.5224,0.132263,-0.0405884,0.84137,-1.13051,0.181147,-0.211497
-0.0078125,-0.936523,0.507813,2.25,36,-66.6875,-0.522949,0.129639,-0.0548096,0.840637,-1.13187,0.161332,-0.232833
-0.0141602,-0.948242,0.460449,6.75,36.4375,-71.375,-0.523254,0.127014,-0.0696411,0.839783,-1.13256,0.140914,-0.255149
0.0107422,-0.928223,0.433594,10.5625,37,-76.125,-0.523132,0.124023,-0.0852661,0.838806,-1.13191,0.119134,-0.278333
0.0454102,-0.916504,0.425781,11.4375,41.1875,-79,-0.522827,0.121155,-0.101807,0.837585,-1.13079,0.0966508,-0.303251
0.078125,-0.906738,0.430176,12.6875,45.6875,-75.875,-0.521973,0.119141,-0.118286,0.836243,-1.12858,0.0758494,-0.329044
0.0546875,-0.912109,0.42334,11.3125,48.9375,-73,-0.521118,0.118225,-0.134338,0.834534,-1.12673,0.0573447,-0.355447
0.0356445,-0.899902,0.402832,9.25,52,-71.6875,-0.520325,0.118347,-0.150208,0.832275,-1.12534,0.0406927,-0.382774
0.0400391,-0.90332,0.383789,7.3125,56.0625,-73.25,-0.519836,0.11908,-0.166382,0.829407,-1.12485,0.0245506,-0.41143
0.0541992,-0.912109,0.391113,3.0625,61.75,-76.6875,-0.519653,0.120422,-0.183472,0.825684,-1.12526,0.0081783,-0.442446
0.034668,-0.900391,0.380371,-2.8125,67.3125,-77.75,-0.519958,0.122925,-0.200806,0.821106,-1.12733,-0.0069527,-0.475303
0.03125,-0.884766,0.366699,-12.125,72,-73.875,-0.521118,0.126953,-0.217651,0.81543,-1.13214,-0.0198028,-0.509076
0.0249023,-0.917969,0.351074,-21.375,77.75,-71.9375,-0.523315,0.132507,-0.234314,0.808472,-1.14024,-0.0309883,-0.54429
0.0141602,-0.980957,0.341797,-25.5625,82.3125,-72.3125,-0.52594,0.139038,-0.250977,0.800659,-1.15003,-0.0413648,-0.580707
0.0166016,-0.988281,0.344238,-21.6875,87.5,-73.75,-0.527527,0.146057,-0.268311,0.792725,-1.15787,-0.0515387,-0.619047
0.0473633,-0.974609,0.336426,-17.9375,88.9375,-69.6875,-0.528198,0.153137,-0.285339,0.784912,-1.16379,-0.0610709,-0.657136
0.0605469,-0.966309,0.307129,-22.3125,91.6875,-65.625,-0.529175,0.161133,-0.30188,0.776428,-1.17129,-0.0693339,-0.695613
0.0195313,-0.973145,0.271484,-30.875,90.6875,-62.5,-0.531189,0.170166,-0.317078,0.767029,-1.18224,-0.0758846,-0.733029
-0.00878906,-0.976563,0.241211,-39,83.6875,-59.125,-0.534363,0.179382,-0.330566,0.756958,-1.19632,-0.0818062,-0.767706
-0.019043,-0.986328,0.249512,-43.375,80,-53.5625,-0.537781,0.188843,-0.342712,0.746826,-1.21156,-0.0866512,-0.800468
-0.0380859,-1.01221,0.250977,-41.9375,77.4375,-44.0625,-0.540466,0.198853,-0.353088,0.737366,-1.22598,-0.0885263,-0.830906
-0.0561523,-1.03271,0.237793,-43,75.6875,-38.75,-0.54303,0.209351,-0.362366,0.727966,-1.24098,-0.0888673,-0.860166
-0.0620117,-0.990723,0.208984,-43.5625,72.0625,-36.8125,-0.545654,0.219543,-0.370911,0.718628,-1.25626,-0.0893567,-0.887976
-0.0581055,-0.983398,0.211914,-40.75,66.1875,-33.0625,-0.547852,0.229004,-0.37854,0.710022,-1.27027,-0.0896921,-0.913494
-0.0756836,-1.01465,0.249512,-33.25,59.75,-28.875,-0.548889,0.237549,-0.385193,0.702759,-1.28103,-0.0890952,-0.936319
-0.0791016,-1.02588,0.244141,-29.3125,52.5,-26.375,-0.549744,0.245178,-0.39093,0.696289,-1.29072,-0.0885085,-0.956499
-0.0717773,-1.02197,0.23877,-26.8125,45.75,-26.1875,-0.550659,0.251648,-0.396118,0.690308,-1.29952,-0.0889404,-0.974295
-0.0566406,-1.02832,0.247559,-26.8125,40.3125,-28.3125,-0.55188,0.25708,-0.401184,0.684387,-1.30803,-0.091052,-0.990593
-0.0615234,-1.01807,0.278809,-23.25,33.625,-28.375,-0.552734,0.261353,-0.405762,0.679382,-1.31454,-0.0935768,-1.00458
-0.0693359,-1.03174,0.296387,-18.8125,25.4375,-28.5,-0.553406,0.264282,-0.409729,0.675232,-1.31918,-0.09674,-1.01568
-0.078125,-1.04199,0.279297,-16,16.75,-29.4375,-0.554504,0.266113,-0.412964,0.671692,-1.32363,-0.100658,-1.02404
-0.0488281,-1.0459,0.271973,-15.0625,12.9375,-28.75,-0.555847,0.267273,-0.415955,0.668335,-1.3279,-0.105353,-1.03105
-0.0249023,-1.05811,0.259766,-10.0625,8.8125,-28.625,-0.557007,0.267456,-0.418762,0.665466,-1.33061,-0.110767,-1.03639
0.00585938,-1.04785,0.270508,-1.1875,4.8125,-26.4375,-0.557373,0.266541,-0.421509,0.663757,-1.33028,-0.116301,-1.04025
0.043457,-1.03125,0.276855,3.4375,2.9375,-22.875,-0.557251,0.265015,-0.424194,0.662781,-1.32816,-0.121773,-1.04328
0.0600586,-1.01367,0.262207,0.625,1.1875,-20.625,-0.557617,0.263672,-0.42627,0.661621,-1.32737,-0.126828,-1.04535
0.0830078,-1.04541,0.270996,-3.625,-1.25,-14.75,-0.558472,0.262817,-0.427429,0.660583,-1.32832,-0.130559,-1.04637
0.0996094,-1.08057,0.27832,0,-2.6875,-5.4375,-0.558594,0.262329,-0.42749,0.660583,-1.32803,-0.131384,-1.04581
0.126465,-1.0498,0.281738,7.0625,-3.4375,2.5,-0.557678,0.261719,-0.427185,0.661804,-1.32527,-0.13042,-1.04453
0.131348,-0.994629,0.278809,10.4375,-3.5,1.625,-0.556458,0.26062,-0.427246,0.663269,-1.32127,-0.130133,-1.04336
0.132813,-0.967285,0.274902,9.4375,-4.875,-4.375,-0.555725,0.25885,-0.427795,0.664246,-1.3176,-0.131976,-1.04217
0.152344,-0.958984,0.259277,8.1875,-6.1875,-9.5,-0.555664,0.256409,-0.428833,0.664551,-1.31468,-0.136202,-1.04097
0.183105,-0.963379,0.257324,3.8125,-6.9375,-11,-0.556335,0.253845,-0.429871,0.664246,-1.3133,-0.141546,-1.03953
0.189453,-0.978516,0.26416,2.3125,-7.125,-7.375,-0.557068,0.25177,-0.43042,0.664124,-1.31267,-0.145648,-1.03785
0.178223,-0.981934,0.257813,4.75,-7.25,-1.875,-0.557251,0.250183,-0.430298,0.664612,-1.31135,-0.147553,-1.03555
0.164063,-0.967285,0.245117,8.125,-6,-0.8125,-0.557007,0.248718,-0.430176,0.665466,-1.3092,-0.148742,-1.03349
0.169434,-0.96582,0.255859,5.4375,-4.3125,-2.3125,-0.556885,0.247437,-0.430359,0.665894,-1.30751,-0.150354,-1.0322
0.17041,-0.973145,0.258301,0.8125,-2.6875,-1.625,-0.55719,0.246765,-0.43042,0.665894,-1.30749,-0.151593,-1.03145
0.163086,-0.98291,0.260742,0.625,-2.3125,0.4375,-0.557312,0.24646,-0.430176,0.666016,-1.30744,-0.151774,-1.03057
0.166992,-0.974121,0.253418,2.1875,-0.75,2.9375,-0.557129,0.246399,-0.429932,0.666382,-1.30698,-0.151239,-1.03006
0.179199,-0.966309,0.246094,-4.3125,3.125,6.375,-0.557312,0.247498,-0.429443,0.666077,-1.3086,-0.14952,-1.03048
0.184082,-0.994629,0.263672,-6.5,1.75,8,-0.557739,0.248718,-0.428589,0.665833,-1.31095,-0.147405,-1.03038
0.20166,-1,0.279297,-0.3125,3.375,11.6875,-0.557129,0.249756,-0.427917,0.666443,-1.31075,-0.144416,-1.03053
0.180176,-0.986328,0.266113,0.875,4,11.9375,-0.556335,0.251038,-0.427185,0.667114,-1.31038,-0.14084,-1.03088
0.171875,-0.989746,0.266602,-3.3125,5.5625,14.375,-0.555786,0.252991,-0.426147,0.66748,-1.31132,-0.136383,-1.03148
0.187988,-1.00342,0.283203,-5.25,8.3125,13.75,-0.555176,0.255188,-0.425476,0.667542,-1.31238,-0.132115,-1.03309
0.181152,-0.997559,0.270996,-4.375,10.5,15.125,-0.554382,0.257751,-0.424866,0.667603,-1.31345,-0.127268,-1.03533
0.177246,-0.976074,0.262207,-2.9375,10.9375,14.375,-0.553467,0.260132,-0.4245,0.667725,-1.31407,-0.122808,-1.03785
0.177734,-0.976563,0.253906,-3.75,11.25,12.375,-0.552734,0.262451,-0.424316,0.667542,-1.31503,-0.118955,-1.04059
0.172852,-0.967773,0.251953,-3.5,9.875,10.3125,-0.552185,0.264404,-0.424255,0.667236,-1.31599,-0.115954,-1.04307
0.157227,-0.957031,0.258789,-0.6875,8.5,8.625,-0.551331,0.265808,-0.424377,0.667297,-1.31565,-0.113442,-1.04521
0.134277,-0.958496,0.246582,-0.4375,7.1875,5.8125,-0.55072,0.26709,-0.4245,0.667236,-1.31574,-0.111367,-1.04718
0.105957,-0.95166,0.219727,-2.9375,5.5,1.625,-0.550781,0.268188,-0.424561,0.666687,-1.31713,-0.110308,-1.04873
0.0800781,-0.964355,0.220703,-4.6875,4.5,-1.3125,-0.551147,0.269287,-0.424622,0.665894,-1.31921,-0.109645,-1.05026
0.0649414,-0.972656,0.228027,-2.75,4.5,-3.375,-0.55127,0.270203,-0.424988,0.665222,-1.32054,-0.109294,-1.05216
0.0600586,-0.98291,0.237305,-3.6875,4,-4.125,-0.551453,0.270996,-0.425293,0.66449,-1.32184,-0.109126,-1.05374
0.0620117,-0.992676,0.222656,-6.6875,1.75,-3.125,-0.552246,0.271973,-0.42511,0.663574,-1.32477,-0.108797,-1.05464
0.0795898,-1.00635,0.233887,-6.6875,-0.9375,1.25,-0.552979,0.272766,-0.424316,0.663147,-1.32737,-0.107716,-1.05414
0.0834961,-1.03613,0.256348,-4.875,-4.1875,9.5625,-0.553284,0.273804,-0.422424,0.663696,-1.32935,-0.104184,-1.05197
0.0634766,-1.0625,0.262207,-2.75,-7.5625,18.125,-0.55304,0.275269,-0.419189,0.665344,-1.33062,-0.0975145,-1.04791
0.0458984,-1.06934,0.24707,1.25,-10.5625,26.25,-0.552307,0.276978,-0.414795,0.667969,-1.3311,-0.0882783,-1.04208
0.0283203,-1.06396,0.241211,4.75,-12.375,31.8125,-0.551025,0.278809,-0.409668,0.671448,-1.33052,-0.0771406,-1.03516
0.0415039,-1.05957,0.26123,6.125,-15.1875,38.125,-0.549377,0.280518,-0.40387,0.675598,-1.32896,-0.0647647,-1.0269
0.0361328,-1.06885,0.267578,6.6875,-17.25,45.375,-0.547424,0.282471,-0.397034,0.680359,-1.32701,-0.0503502,-1.01712
0.00976563,-1.07178,0.286133,8.625,-20.125,52,-0.544983,0.284607,-0.389221,0.685913,-1.32418,-0.033813,-1.00591
0.00195313,-1.07959,0.29248,11.375,-23.75,57.25,-0.542114,0.286499,-0.380615,0.6922,-1.32008,-0.0160455,-0.993003
-0.00683594,-1.06641,0.29248,12.6875,-26.75,61.1875,-0.539124,0.288147,-0.371338,0.698853,-1.31539,0.00235048,-0.97862
-0.0195313,-1.06689,0.286621,15.5625,-29,66.9375,-0.535706,0.289856,-0.361206,0.706055,-1.30977,0.02231,-0.96286
-0.0415039,-1.06201,0.279297,20,-32,71.4375,-0.531677,0.29126,-0.350403,0.713867,-1.30234,0.0432526,-0.945494
-0.0527344,-1.04346,0.291016,22.6875,-34.625,75.9375,-0.527222,0.29248,-0.338989,0.722229,-1.29371,0.0650767,-0.926864
-0.0820313,-1.0459,0.27832,23.125,-36.0625,80.0625,-0.522583,0.293884,-0.326721,0.730591,-1.28473,0.0880542,-0.906932
-0.109863,-1.03613,0.274414,25.125,-37.125,82.5625,-0.517578,0.295288,-0.314026,0.739136,-1.27485,0.111682,-0.886251
-0.123535,-1.02051,0.289063,27.6875,-38,83.75,-0.512024,0.296387,-0.301208,0.747803,-1.26322,0.135238,-0.8648
-0.126465,-1.01807,0.29541,25.9375,-39.6875,84.5625,-0.506836,0.29718,-0.288147,0.756165,-1.25191,0.158004,-0.8425
-0.139648,-1.02002,0.306152,26.625,-41.125,85.25,-0.501526,0.297607,-0.274902,0.764404,-1.23971,0.180217,-0.819237
-0.154297,-1.0127,0.308105,29.75,-42.3125,87.5625,-0.495667,0.297852,-0.261353,0.772827,-1.22587,0.202673,-0.794979
-0.168945,-1.00049,0.308105,32.5,-42.6875,88.9375,-0.489441,0.297913,-0.247681,0.78125,-1.21081,0.22493,-0.770032
-0.200684,-0.998047,0.321289,33.625,-41.625,89.8125,-0.482788,0.298157,-0.233948,0.78949,-1.19478,0.247405,-0.744947
-0.254883,-0.993164,0.353516,34.4375,-42.625,94.875,-0.475403,0.298706,-0.219238,0.797913,-1.17711,0.271555,-0.718155
-0.282227,-0.97168,0.364258,36.3125,-42.9375,97.75,-0.467468,0.299316,-0.204041,0.806335,-1.1579,0.296248,-0.690131
-0.29834,-0.956543,0.368164,35.3125,-46.125,99.8125,-0.459595,0.299622,-0.188293,0.814575,-1.13806,0.320511,-0.660368
-0.3125,-0.944824,0.393066,35.5,-49,101.625,-0.450928,0.2995,-0.171814,0.823059,-1.11539,0.344855,-0.627997
-0.336914,-0.937012,0.415527,41,-51.5,103.688,-0.441284,0.29895,-0.15509,0.831787,-1.08953,0.368748,-0.593724
-0.342285,-0.88623,0.45166,46.875,-52.6875,101.75,-0.430603,0.297668,-0.138733,0.840637,-1.06005,0.390861,-0.558066
-0.321289,-0.864258,0.462402,45.875,-53.625,98,-0.420837,0.295227,-0.123352,0.848816,-1.0312,0.408643,-0.522422
-0.333984,-0.839844,0.496094,47.0625,-52.625,91.25,-0.410889,0.292236,-0.108948,0.856628,-1.00125,0.42371,-0.487278
-0.355957,-0.840332,0.526855,51.8125,-55.25,89.1875,-0.40033,0.288513,-0.0949097,0.864563,-0.969018,0.436627,-0.45117
-0.366211,-0.811035,0.524902,52.25,-57.6875,84.8125,-0.389954,0.284119,-0.0812988,0.872131,-0.936484,0.4469,-0.414756
-0.354004,-0.777832,0.537109,52.0625,-55.3125,81.625,-0.379578,0.279663,-0.0682983,0.879211,-0.903976,0.455506,-0.379168
-0.331543,-0.745605,0.571777,53.3125,-52.0625,79.125,-0.368896,0.275085,-0.0560303,0.886047,-0.87088,0.462446,-0.344495
-0.310059,-0.726563,0.57959,55.125,-48,75.8125,-0.358154,0.27063,-0.0446777,0.892456,-0.838098,0.467939,-0.311572
-0.317383,-0.687012,0.57959,58,-43.6875,74.1875,-0.346863,0.266724,-0.0338745,0.898499,-0.804699,0.473273,-0.279919
-0.307129,-0.629395,0.575684,57.1875,-37.4375,69,-0.335632,0.263489,-0.0241089,0.904053,-0.772426,0.478257,-0.250952
-0.266113,-0.59082,0.605957,56.5,-33.4375,69,-0.32428,0.260376,-0.0146484,0.909302,-0.740099,0.482528,-0.222541
-0.307617,-0.563965,0.624023,57.875,-28.4375,63.875,-0.312744,0.257996,-0.00610352,0.914063,-0.708214,0.486835,-0.196476
-0.335449,-0.513184,0.61377,52.25,-25.4375,56.625,-0.302185,0.256042,0.00158691,0.918213,-0.679279,0.490608,-0.172996
-0.290039,-0.48877,0.597656,45.3125,-18.5625,55.0625,-0.292908,0.254822,0.0088501,0.921509,-0.65388,0.494766,-0.151667
-0.291992,-0.459961,0.585449,44.8125,-9.0625,51.5625,-0.283813,0.254944,0.0151367,0.924194,-0.630005,0.500458,-0.133449
-0.369141,-0.416016,0.589844,43.625,0.125,40.875,-0.275024,0.256775,0.0196533,0.92627,-0.608476,0.508074,-0.120278
-0.365723,-0.393066,0.59082,35.6875,4.0625,37.6875,-0.267578,0.258972,0.0238647,0.927734,-0.590243,0.515863,-0.108634
-0.390625,-0.383789,0.580078,25.625,12.25,30.125,-0.262146,0.26239,0.0269775,0.928223,-0.577676,0.525051,-0.101281
-0.427246,-0.385742,0.614746,23.0625,15.25,29.375,-0.25708,0.266235,0.0299683,0.928467,-0.566128,0.53494,-0.094573
-0.428223,-0.364746,0.643555,25.3125,18.25,26,-0.251587,0.270264,0.0322266,0.928772,-0.553976,0.544794,-0.0891316
-0.479004,-0.305664,0.670898,25.375,19.25,14.4375,-0.24585,0.274292,0.0328369,0.929077,-0.542059,0.553682,-0.0869359
-0.505859,-0.302734,0.679199,12.625,17.0625,0.5625,-0.242859,0.277466,0.0319824,0.928955,-0.537002,0.559829,-0.0890429
-0.57373,-0.318359,0.67334,0.4375,11.0625,-8.8125,-0.24231,0.279785,0.0306396,0.928467,-0.537579,0.563787,-0.0932376
-0.602539,-0.38916,0.720215,-4.0625,7.75,-7.125,-0.242859,0.281433,0.0296631,0.927856,-0.540218,0.566482,-0.0969184
-0.633301,-0.40625,0.805176,4,4.875,0.75,-0.241394,0.282776,0.0297241,0.927795,-0.537363,0.569329,-0.0967555
-0.708008,-0.399902,0.892578,8.125,2,5.875,-0.238464,0.283997,0.0307617,0.928162,-0.530439,0.572649,-0.0933494
-0.765137,-0.399414,0.925781,2.5625,-3.8125,14.3125,-0.23584,0.284912,0.0338135,0.928406,-0.522824,0.576362,-0.0855046
-0.769043,-0.473633,0.969238,-3.125,-8.0625,20.375,-0.234436,0.284973,0.0380249,0.928589,-0.51698,0.578866,-0.0753307
-0.718262,-0.533691,0.98291,9.875,-11.625,20.75,-0.231628,0.283875,0.0413818,0.929504,-0.50783,0.578652,-0.065238
-0.70166,-0.467285,0.961914,26.8125,-12.5,18.875,-0.225708,0.282776,0.0437622,0.931213,-0.491975,0.578065,-0.055126
-0.681152,-0.393066,0.905273,32,-12.625,16.6875,-0.218811,0.281921,0.0457153,0.932983,-0.474192,0.577656,-0.0454622
-0.626953,-0.375977,0.831543,31.625,-15.25,14.0625,-0.212463,0.280518,0.0471802,0.934814,-0.457877,0.575807,-0.0369567
-0.544922,-0.368164,0.778809,32.25,-15.6875,10.5,-0.206543,0.278503,0.0479126,0.936707,-0.442874,0.572273,-0.030083
-0.51123,-0.361328,0.751465,34.6875,-16.1875,6.625,-0.200623,0.276184,0.0477905,0.93866,-0.42838,0.567661,-0.0250274
-0.510254,-0.352539,0.737793,32.0625,-19.25,1.375,-0.195435,0.273315,0.0470581,0.940674,-0.415919,0.561664,-0.0216211
-0.475586,-0.32959,0.714844,24.9375,-23.8125,2,-0.191284,0.269592,0.046936,0.942566,-0.405299,0.554094,-0.0172369
-0.453125,-0.286621,0.717285,21.625,-25.6875,1.6875,-0.187317,0.265442,0.0470581,0.94458,-0.394984,0.545788,-0.0123356
-0.45459,-0.286621,0.734863,20.4375,-25.9375,1.125,-0.183533,0.261169,0.0471191,0.946472,-0.385175,0.537133,-0.00776616
-0.467773,-0.302246,0.73584,18.625,-25.6875,1.375,-0.180298,0.257202,0.0473022,0.948181,-0.376748,0.529157,-0.00352608
-0.490723,-0.291016,0.75,15.4375,-21.0625,-4.4375,-0.177734,0.253967,0.0465698,0.949585,-0.370612,0.522307,-0.00211549
-0.466309,-0.270996,0.726074,9.1875,-18.375,-4,-0.176147,0.251099,0.0461426,0.950623,-0.366615,0.516289,-0.000842212
-0.472168,-0.275879,0.744629,4.9375,-15,-1.3125,-0.17511,0.248901,0.0462646,0.951416,-0.363749,0.511884,0.000990675
-0.481445,-0.290527,0.76416,4.5625,-11.0625,-1.0625,-0.174316,0.247314,0.0462646,0.951965,-0.361628,0.50865,0.00213278
-0.509277,-0.287109,0.773438,5.25,-9.875,0.3125,-0.173279,0.246277,0.0465088,0.952393,-0.358941,0.506618,0.00370566
-0.520508,-0.262695,0.76709,3.4375,-9,0.625,-0.172363,0.245544,0.046936,0.952759,-0.356515,0.505299,0.00547617
-0.522461,-0.260742,0.783203,3.3125,-10.25,2.875,-0.171204,0.244629,0.0477905,0.953125,-0.353254,0.503721,0.00837894
-0.527832,-0.26709,0.828613,7.25,-13.25,4.875,-0.169312,0.243164,0.0488892,0.953796,-0.348145,0.501126,0.012451
-0.505859,-0.269531,0.838867,5.75,-13.0625,6.5,-0.167603,0.241455,0.0502319,0.954468,-0.343292,0.498103,0.0170218
-0.484375,-0.244629,0.84375,2.6875,-5.625,11,-0.166077,0.240906,0.0523071,0.954773,-0.338674,0.497687,0.0226099
-0.476563,-0.244629,0.87207,4.6875,-0.625,14,-0.164063,0.241089,0.0545654,0.954956,-0.332981,0.498789,0.0285955
-0.469238,-0.262695,0.890137,9,3.3125,16.3125,-0.161438,0.24176,0.0568848,0.955078,-0.32594,0.500845,0.0348924
-0.468262,-0.247559,0.85791,9.5625,7.375,17.1875,-0.158813,0.243347,0.0592041,0.955017,-0.319024,0.50477,0.0408989
-0.462402,-0.233887,0.846191,10,11.5,18.5,-0.156006,0.245544,0.0615845,0.954712,-0.311668,0.50987,0.0469678
-0.466797,-0.220703,0.847168,11.3125,15.25,19.1875,-0.152954,0.248413,0.0639648,0.954285,-0.3038,0.516317,0.0530246
-0.445801,-0.213379,0.904297,15.9375,16.375,19.6875,-0.148987,0.250977,0.0662231,0.954163,-0.293873,0.522072,0.0595549
-0.458496,-0.229004,0.929688,21.9375,16.25,17.9375,-0.144226,0.253418,0.0678101,0.954102,-0.282432,0.52722,0.0651891
-0.490723,-0.185059,0.906738,24.4375,14.8125,10.9375,-0.139099,0.255859,0.0682983,0.954163,-0.270765,0.532006,0.0686982
-0.513672,-0.136719,0.883301,17.5625,11.625,-2.5,-0.135254,0.257813,0.0671387,0.954285,-0.262919,0.535434,0.0679548
-0.486816,-0.121582,0.89209,4.125,9.3125,-14.6875,-0.134033,0.258606,0.0645752,0.954407,-0.261758,0.536279,0.0627896
-0.481934,-0.147461,0.92041,-4.3125,6.375,-21.8125,-0.134644,0.258423,0.0612793,0.95459,-0.265102,0.535042,0.0551331
-0.487793,-0.164063,0.917969,-7.5,6.25,-28.5625,-0.136169,0.258118,0.0568848,0.954712,-0.271144,0.533265,0.0445162
-0.458008,-0.163574,0.90625,-7.0625,5.875,-32.875,-0.137878,0.257385,0.0517578,0.954956,-0.277961,0.530374,0.0323232
-0.467773,-0.168945,0.90918,-3.3125,7.125,-36.375,-0.139038,0.256958,0.0458984,0.955261,-0.283987,0.527862,0.0187954
-0.511719,-0.179688,0.860352,-2.9375,7.9375,-41.125,-0.140503,0.257263,0.0392456,0.955261,-0.291231,0.526529,0.00310813
-0.563965,-0.190918,0.826172,-6.5,9.25,-44.6875,-0.142883,0.258301,0.0321655,0.954834,-0.3009,0.526442,-0.0143291
-0.571777,-0.209473,0.827637,-7.875,11.9375,-46.75,-0.145691,0.259827,0.0247192,0.954224,-0.311895,0.527145,-0.033022
-0.550781,-0.244141,0.828613,-4.375,14.375,-50.625,-0.148376,0.261353,0.0162964,0.953613,-0.323232,0.527407,-0.0538111
-0.53418,-0.258789,0.796875,0.0625,15.3125,-56.875,-0.150696,0.262878,0.0065918,0.952942,-0.334505,0.527069,-0.0772118
-0.533691,-0.256836,0.780762,-0.6875,18.1875,-62.1875,-0.15332,0.264771,-0.00402832,0.951965,-0.347127,0.526915,-0.102988
-0.515625,-0.268555,0.765137,-5.625,21.375,-66.4375,-0.157043,0.266968,-0.0152588,0.950684,-0.362774,0.526848,-0.130944
-0.485352,-0.289063,0.768555,-8.3125,23.4375,-72.5625,-0.161499,0.268921,-0.0274658,0.949097,-0.380559,0.525438,-0.161371
-0.454102,-0.318848,0.754395,-12.625,23.5625,-80.3125,-0.167236,0.270386,-0.0408325,0.947205,-0.401669,0.521941,-0.194794
-0.440918,-0.342285,0.744141,-16.9375,22.5625,-87.75,-0.174072,0.271423,-0.0552979,0.944946,-0.42555,0.51635,-0.230884
-0.431152,-0.375488,0.726563,-19.375,24.875,-92.5625,-0.181702,0.272644,-0.0704956,0.942139,-0.451521,0.509933,-0.268952
-0.458496,-0.402832,0.739258,-20.375,29.1875,-98.25,-0.189514,0.274536,-0.0866699,0.938721,-0.478635,0.503592,-0.309506
-0.491699,-0.430176,0.765625,-27.1875,32.6875,-105.875,-0.198486,0.276794,-0.10376,0.934448,-0.508825,0.496226,-0.352736
-0.512207,-0.450195,0.756348,-32.875,30.75,-120.313,-0.208984,0.27832,-0.122803,0.929382,-0.542526,0.484769,-0.400052
-0.476563,-0.486328,0.760742,-37.9375,29.75,-129.375,-0.220703,0.279175,-0.142944,0.923523,-0.578354,0.469625,-0.44923
-0.464844,-0.564941,0.748535,-38.5,33.8125,-131.938,-0.232483,0.280457,-0.163574,0.916748,-0.614183,0.45355,-0.499206
-0.506836,-0.612793,0.731934,-37.5625,39.1875,-138.5,-0.244141,0.282288,-0.185425,0.908997,-0.650094,0.436376,-0.551603
-0.562012,-0.617188,0.722656,-35.5,39.1875,-152.375,-0.255859,0.283386,-0.20929,0.900208,-0.685414,0.414919,-0.606766
-0.530273,-0.604492,0.750488,-41.0625,33.125,-164.5,-0.26886,0.282898,-0.234314,0.890381,-0.72119,0.387396,-0.66232
-0.436035,-0.718262,0.736328,-59.625,31.375,-168.438,-0.284973,0.282349,-0.258789,0.878662,-0.761848,0.356165,-0.716752
-0.394043,-0.780762,0.688965,-79.25,36.0625,-171.375,-0.303833,0.282898,-0.282776,0.864685,-0.807863,0.322989,-0.771169
-0.323242,-0.804688,0.650391,-79.0625,43.5625,-167.563,-0.321777,0.284424,-0.306274,0.849548,-0.851739,0.290216,-0.824398
-0.283203,-0.899902,0.57373,-63.6875,49.125,-165.438,-0.336914,0.285828,-0.3302,0.834106,-0.888838,0.257148,-0.876848
-0.250488,-0.923828,0.530273,-42.75,49.9375,-154.75,-0.348145,0.28656,-0.353333,0.819641,-0.916255,0.225641,-0.925634
-0.202148,-0.87207,0.519531,-31.0625,48,-145.75,-0.356995,0.28656,-0.375366,0.805969,-0.937131,0.195146,-0.97076
-0.162109,-0.850098,0.543457,-38.3125,45.9375,-143.688,-0.366516,0.286499,-0.396362,0.791504,-0.958369,0.163714,-1.01373
-0.10791,-0.834473,0.522949,-53.8125,45.875,-132.813,-0.37738,0.287964,-0.414795,0.776245,-0.983235,0.134394,-1.05352
-0.0463867,-0.890625,0.410645,-61.9375,45.75,-114.875,-0.388489,0.291077,-0.430115,0.761169,-1.01,0.109144,-1.08908
-0.0112305,-0.861816,0.437988,-52.25,45.8125,-108.688,-0.397644,0.293579,-0.444946,0.746765,-1.03185,0.0847101,-1.12272
-0.00195313,-0.835449,0.479004,-54.625,47.625,-101.063,-0.406189,0.296814,-0.458618,0.732483,-1.0532,0.0622913,-1.15498
0.0375977,-0.822266,0.480957,-70.75,55.75,-90.875,-0.415527,0.302185,-0.470947,0.717102,-1.07872,0.0420245,-1.18735
0.046875,-0.804199,0.418945,-84.9375,54.375,-92.9375,-0.426758,0.308472,-0.4823,0.700073,-1.10902,0.0202565,-1.21905
0.0185547,-0.88916,0.327637,-117.125,55.1875,-93.4375,-0.441406,0.318054,-0.491333,0.680115,-1.15052,-0.00112823,-1.25047
0.0454102,-0.945801,0.34668,-105.313,44.0625,-83.5625,-0.454712,0.325806,-0.498596,0.66217,-1.18719,-0.0219593,-1.27596
0.10498,-0.949707,0.348145,-82.125,37.6875,-72.3125,-0.465332,0.330994,-0.505554,0.64679,-1.21522,-0.0423473,-1.29745
0.10791,-0.897949,0.34375,-57.1875,32.625,-71.125,-0.473022,0.333374,-0.513245,0.633789,-1.23356,-0.0630166,-1.31669
0.105469,-0.929688,0.355957,-52.375,25.8125,-58.75,-0.479675,0.335571,-0.519104,0.622803,-1.2497,-0.0800989,-1.33194
0.115723,-0.942383,0.372559,-50.4375,22,-54.125,-0.48584,0.337402,-0.524292,0.61261,-1.2644,-0.0962002,-1.34531
0.137207,-0.933105,0.369141,-46.6875,20.875,-48,-0.49115,0.339111,-0.528931,0.603271,-1.27726,-0.110642,-1.3574
0.151367,-0.946289,0.341309,-45.9375,15.125,-40.4375,-0.496643,0.34082,-0.532227,0.59491,-1.29067,-0.123452,-1.36669
0.176758,-0.950195,0.293457,-46.75,10.4375,-38.125,-0.502686,0.342407,-0.534668,0.586609,-1.3051,-0.136243,-1.37393
0.221191,-1.08496,0.29248,-28,2.75,-29.25,-0.507324,0.342285,-0.53656,0.581055,-1.31434,-0.147178,-1.37764
0.214844,-1.27295,0.322754,-2.75,-0.375,-15.125,-0.508667,0.341125,-0.537903,0.579285,-1.31531,-0.152601,-1.37882
0.246582,-1.27002,0.339844,17.0625,-3.375,-2.875,-0.507629,0.338562,-0.539185,0.580505,-1.30936,-0.154957,-1.378
0.230957,-1.12744,0.294434,9.5625,3.6875,3.0625,-0.506531,0.338013,-0.539978,0.581116,-1.30627,-0.1548,-1.37902
0.240723,-1.02637,0.285645,-21.5625,9.5,10.3125,-0.507507,0.341187,-0.53894,0.579285,-1.31294,-0.152333,-1.38121
0.221191,-1.104,0.274414,-49.8125,13.625,3.875,-0.51123,0.347229,-0.537048,0.574158,-1.3296,-0.150955,-1.38562
0.164551,-1.125,0.249512,-38.375,16.4375,0.8125,-0.51355,0.352661,-0.536011,0.569763,-1.34252,-0.149223,-1.39121
0.155273,-1.01611,0.244141,-17.125,19.9375,-2.9375,-0.513428,0.355896,-0.537109,0.566772,-1.34702,-0.148657,-1.39835
0.125488,-0.935059,0.240234,-7.3125,19.9375,-5.4375,-0.512329,0.358032,-0.539001,0.564636,-1.34786,-0.148522,-1.40566
0.100098,-0.942383,0.21875,-4.125,15.5625,-9.125,-0.511536,0.359497,-0.540833,0.562744,-1.34834,-0.149254,-1.41186
0.11377,-0.973145,0.201172,-1,14.375,-13,-0.510986,0.360229,-0.54303,0.560608,-1.34818,-0.151647,-1.41775
0.12793,-0.954102,0.210449,9.375,14.5,-11.8125,-0.509338,0.359924,-0.545898,0.559509,-1.34415,-0.153939,-1.42364
0.120605,-0.936523,0.228516,14.4375,10.8125,-9.5625,-0.507263,0.358948,-0.548584,0.559387,-1.33824,-0.155598,-1.42817
0.112793,-0.945801,0.229004,14.25,5.1875,-4.25,-0.505432,0.357971,-0.550171,0.56012,-1.33292,-0.155764,-1.43031
0.127441,-0.936523,0.231934,15.25,0.4375,-1.1875,-0.503845,0.356628,-0.551147,0.561462,-1.3276,-0.155546,-1.43055
0.137207,-0.922852,0.220703,13.9375,-1.75,-0.375,-0.502686,0.355225,-0.551758,0.562744,-1.32306,-0.155547,-1.42988
0.152344,-0.938965,0.23584,10.875,-2.0625,-0.25,-0.501831,0.354004,-0.552246,0.563782,-1.31945,-0.155735,-1.4292
0.164551,-0.965332,0.245605,9.375,-2.3125,-0.75,-0.501282,0.352783,-0.552734,0.564636,-1.31649,-0.1564,-1.42854
0.157715,-0.989746,0.25,8.875,-2.3125,-1.9375,-0.500793,0.351624,-0.553162,0.565308,-1.31371,-0.157134,-1.42781
0.157715,-0.985352,0.26123,10.875,-1.8125,-3.0625,-0.500061,0.350159,-0.553955,0.566101,-1.30997,-0.158232,-1.42748
0.153809,-0.969727,0.274902,8.75,0.375,-2.3125,-0.499146,0.349121,-0.55481,0.566711,-1.30651,-0.158826,-1.42792
0.154785,-0.95752,0.277832,2.625,1.6875,-1.25,-0.498657,0.348877,-0.555298,0.566833,-1.30513,-0.158965,-1.42868
0.160156,-0.98584,0.269531,-3.25,1.3125,0.4375,-0.498779,0.349365,-0.555176,0.566528,-1.30611,-0.158634,-1.4291
0.155273,-0.980957,0.27832,-0.75,0.5,0.9375,-0.498718,0.349365,-0.555176,0.566589,-1.30599,-0.158522,-1.42911
0.143555,-0.959473,0.277344,2.5625,-0.625,2.25,-0.498169,0.349243,-0.555054,0.5672,-1.30469,-0.15749,-1.42867
0.145508,-0.921387,0.276855,4,-2.1875,4,-0.497559,0.348938,-0.55481,0.568237,-1.30304,-0.156175,-1.42772
0.149414,-0.925293,0.257813,0.5,-3.4375,4.875,-0.497498,0.348938,-0.554077,0.56897,-1.30296,-0.154852,-1.42608
0.161133,-0.95166,0.255371,-3.3125,-3.8125,3.5625,-0.498047,0.349121,-0.553223,0.569214,-1.3044,-0.154223,-1.42442
0.15332,-0.953125,0.261719,-2.125,-4.4375,3.375,-0.498474,0.349182,-0.552429,0.569641,-1.30543,-0.153529,-1.42274
0.14502,-0.924316,0.260742,-1.9375,-5.4375,5.0625,-0.498779,0.349182,-0.551392,0.570374,-1.30612,-0.152305,-1.42043
0.143555,-0.896484,0.293457,-5.6875,-6.875,8.125,-0.499084,0.349487,-0.549866,0.571289,-1.30727,-0.150105,-1.41746
0.141113,-0.929199,0.290527,-14.375,-9.5,12.125,-0.500366,0.350708,-0.54718,0.572021,-1.31188,-0.146884,-1.41326
0.155762,-0.959473,0.273926,-17.375,-12.5625,14,-0.502258,0.352112,-0.543823,0.572693,-1.31803,-0.143467,-1.40786
0.142578,-0.95459,0.248535,-15.3125,-11.6875,15.9375,-0.503906,0.353699,-0.540344,0.573608,-1.32399,-0.139246,-1.40254
0.129395,-0.92627,0.250977,-14.9375,-11.125,16.75,-0.505249,0.355347,-0.536865,0.574646,-1.32939,-0.134509,-1.39736
0.123047,-0.940918,0.252441,-21,-14.1875,18.0625,-0.507324,0.357361,-0.532654,0.575562,-1.33691,-0.129451,-1.3912
0.132813,-0.924805,0.24707,-28.8125,-17.3125,20.0625,-0.510315,0.359741,-0.527588,0.57605,-1.34689,-0.124334,-1.3838
0.126465,-0.927246,0.208008,-35.5625,-17.4375,24.5625,-0.513977,0.363281,-0.521423,0.576172,-1.36009,-0.117646,-1.37594
0.117188,-0.955078,0.199219,-42.4375,-15.9375,26.1875,-0.517944,0.367737,-0.514771,0.575745,-1.37537,-0.110022,-1.36864
0.121582,-0.969238,0.165039,-44.4375,-15.625,25,-0.5224,0.372314,-0.508057,0.574829,-1.39195,-0.102965,-1.36167
0.124512,-0.949707,0.150879,-44.625,-15.9375,25.6875,-0.526794,0.37677,-0.501221,0.573853,-1.40828,-0.0958062,-1.35448
0.111328,-0.977051,0.132813,-50.75,-14.5,27.9375,-0.531494,0.382202,-0.493835,0.572327,-1.42688,-0.0875642,-1.34801
0.0800781,-0.979492,0.104492,-57.125,-16.4375,28.4375,-0.536804,0.388123,-0.485596,0.570435,-1.4477,-0.0786236,-1.34096
0.0756836,-0.960449,0.0742188,-58.8125,-21.25,31.5,-0.54248,0.393982,-0.476379,0.568787,-1.46939,-0.0687238,-1.3323
0.09375,-0.981934,0.0126953,-56.75,-26.125,41.5625,-0.548096,0.400085,-0.465759,0.567993,-1.49155,-0.0560992,-1.32185
0.0551758,-1.02734,-0.00244141,-47.9375,-28.4375,48.625,-0.552246,0.406006,-0.45459,0.568848,-1.51035,-0.0401908,-1.31066
0.0185547,-1.04346,-0.0283203,-33.5,-34.6875,55.25,-0.554871,0.41095,-0.442932,0.571899,-1.52429,-0.0214979,-1.29748
0.00195313,-1.07227,-0.0629883,-24.625,-42.3125,59.375,-0.557007,0.414856,-0.430603,0.576416,-1.53551,-0.00143841,-1.28185
-0.034668,-1.11914,-0.0678711,-10.8125,-49.375,64.4375,-0.557739,0.417542,-0.417908,0.583069,-1.54161,0.0207453,-1.26392
-0.0473633,-1.10596,-0.034668,3.625,-55.125,77.25,-0.556152,0.419434,-0.404602,0.592468,-1.54122,0.0469787,-1.24389
-0.0571289,-1.12158,-0.0102539,11.5625,-60.25,89.8125,-0.55304,0.421082,-0.390198,0.60376,-1.53701,0.0769506,-1.22186
-0.109863,-1.16553,-0.0200195,13.375,-62.5,96.5625,-0.549255,0.423035,-0.374756,0.61554,-1.53183,0.109334,-1.19891
-0.16748,-1.13574,0.00390625,17.25,-66.0625,102.438,-0.544067,0.424622,-0.358582,0.62854,-1.52291,0.144096,-1.17424
-0.20166,-1.12744,0.034668,19.9375,-68.0625,111.063,-0.537842,0.426392,-0.341309,0.642212,-1.51196,0.181523,-1.1482
-0.257813,-1.16455,0.0610352,18.6875,-70.625,116.563,-0.531128,0.428223,-0.322876,0.655945,-1.49996,0.220589,-1.12042
-0.335449,-1.1875,0.0722656,18.4375,-74.375,115.938,-0.524414,0.429321,-0.303955,0.669495,-1.48654,0.258944,-1.09054
-0.374512,-1.14502,0.0932617,21.625,-76.625,118.25,-0.516968,0.429993,-0.284607,0.683289,-1.47053,0.297732,-1.059
-0.399902,-1.10498,0.127441,28.9375,-78.6875,120.5,-0.508179,0.429932,-0.265198,0.69751,-1.4499,0.336544,-1.02537
-0.427246,-1.08984,0.165039,31.0625,-81.5,123.063,-0.498779,0.429321,-0.245239,0.711853,-1.42648,0.375338,-0.989232
-0.464355,-1.05078,0.188965,34.9375,-81.8125,124.063,-0.488464,0.428284,-0.22522,0.726074,-1.39964,0.413599,-0.951231
-0.497559,-1.00684,0.197754,33.3125,-80.3125,122.313,-0.478088,0.427124,-0.205322,0.739502,-1.37177,0.450476,-0.912404
-0.50293,-0.955078,0.213379,29.6875,-80.75,120.625,-0.468018,0.425537,-0.185181,0.752014,-1.34296,0.485538,-0.87152
-0.527344,-0.973633,0.248535,32.3125,-82.5,123.188,-0.457214,0.423523,-0.164673,0.764465,-1.31069,0.520087,-0.827811
-0.565918,-0.958008,0.279785,39.5,-81.25,123.5,-0.445068,0.421143,-0.144653,0.776917,-1.27361,0.553448,-0.78225
-0.584473,-0.897461,0.29834,46.625,-78.3125,118.063,-0.431946,0.418335,-0.126038,0.78894,-1.23256,0.583802,-0.736263
-0.585938,-0.838379,0.3125,46.4375,-75.0625,112.375,-0.418945,0.415283,-0.108337,0.800171,-1.19043,0.611163,-0.690049
-0.599121,-0.819824,0.34082,48.125,-75.3125,113.188,-0.405457,0.411926,-0.0905762,0.810974,-1.1453,0.63686,-0.641289
-0.63623,-0.766113,0.391113,53.6875,-73.4375,113.875,-0.390686,0.408569,-0.0731201,0.821594,-1.0958,0.6614,-0.590564
-0.640625,-0.714355,0.392578,52.4375,-72.4375,110.563,-0.37616,0.404907,-0.0560913,0.831482,-1.04527,0.683032,-0.538665
-0.661133,-0.669922,0.380371,46.125,-69.125,96.625,-0.363586,0.401001,-0.0408325,0.839844,-0.99907,0.699538,-0.49013
-0.626953,-0.628418,0.419922,40.5,-68.875,94.4375,-0.351746,0.396423,-0.0256348,0.847595,-0.952894,0.712832,-0.44017
-0.630371,-0.629883,0.450684,41.9375,-67,94.4375,-0.339661,0.391724,-0.0107422,0.85498,-0.905451,0.724198,-0.389587
-0.678711,-0.592285,0.470215,44.125,-68.8125,91,-0.327271,0.38678,0.00378418,0.862122,-0.856631,0.733373,-0.338412
-0.662109,-0.546387,0.487793,43.625,-67.75,92.6875,-0.314575,0.381897,0.0184937,0.868774,-0.806558,0.741236,-0.286067
-0.661133,-0.477539,0.506348,40.25,-65,89.3125,-0.302185,0.377075,0.03302,0.874817,-0.757256,0.747353,-0.234077
-0.67041,-0.44873,0.51416,36.4375,-60.9375,84.6875,-0.290649,0.372681,0.046814,0.880005,-0.711149,0.752046,-0.184879
-0.647949,-0.437012,0.55957,33.75,-56,83.625,-0.279541,0.368347,0.0602417,0.884583,-0.666474,0.75508,-0.136873
-0.665527,-0.413574,0.564941,32.375,-52.6875,74.125,-0.269226,0.364136,0.0721436,0.888611,-0.625413,0.755971,-0.0933974
-0.675293,-0.373047,0.565918,27.3125,-49.0625,63.5,-0.260193,0.360107,0.0827026,0.892029,-0.589304,0.755276,-0.05476
-0.612793,-0.358398,0.599609,24.875,-45.3125,66.5,-0.251343,0.356079,0.0934448,0.895142,-0.553812,0.753857,-0.0160534
-0.622559,-0.327637,0.605469,26.5,-37.8125,63.125,-0.242493,0.353088,0.103333,0.897644,-0.519895,0.753246,0.0195627
-0.680664,-0.296387,0.613281,15.875,-30,45.4375,-0.236267,0.350952,0.110962,0.899231,-0.495545,0.752694,0.046225
-0.597656,-0.295898,0.615723,7.5625,-31.9375,47.25,-0.231384,0.347656,0.119263,0.900696,-0.473783,0.74975,0.0737939
-0.577148,-0.291992,0.633789,8.9375,-28.875,48.3125,-0.226257,0.344666,0.127441,0.902039,-0.45185,0.747043,0.100964
-0.628906,-0.255371,0.641113,9.75,-26.1875,44.6875,-0.221069,0.342468,0.135071,0.903076,-0.430686,0.745406,0.126275
-0.612305,-0.263184,0.666016,9.375,-23.75,43.3125,-0.216125,0.34021,0.142273,0.903992,-0.410659,0.743124,0.150188
-0.600098,-0.254883,0.684082,9.0625,-18,33.8125,-0.211914,0.338318,0.147766,0.904846,-0.394359,0.7408,0.168874
-0.583984,-0.204102,0.682129,11.25,-10,16.875,-0.20813,0.337158,0.150391,0.905701,-0.382002,0.738704,0.179608
-0.547852,-0.14209,0.725098,11.0625,-3.125,-1.125,-0.204834,0.335999,0.150085,0.906921,-0.373696,0.735467,0.18252
-0.591309,-0.144043,0.68457,0.6875,3.5,-21.625,-0.204773,0.335571,0.147034,0.907593,-0.376323,0.733322,0.175156
-0.64209,-0.263672,0.661621,-12.6875,5.9375,-32.625,-0.20874,0.335083,0.142395,0.907654,-0.390712,0.73115,0.160006
-0.634766,-0.37207,0.675293,-8.1875,2,-22.0625,-0.212219,0.333984,0.138916,0.907776,-0.402609,0.727932,0.148501
-0.674316,-0.355957,0.682617,8.9375,1.75,-10.8125,-0.212158,0.333984,0.136353,0.908142,-0.404745,0.726781,0.142248
-0.689941,-0.283203,0.67627,9,-0.25,-3.375,-0.210876,0.334351,0.135376,0.908508,-0.402438,0.726979,0.140951
-0.688965,-0.283203,0.679199,-2.9375,-5.9375,3.75,-0.210876,0.333801,0.136414,0.908508,-0.401384,0.72623,0.143723
-0.675781,-0.320801,0.678223,-7.875,-5.5,6.0625,-0.211975,0.333069,0.137939,0.908325,-0.402715,0.725553,0.146738
-0.687012,-0.324219,0.692871,-4.0625,-1.75,3.8125,-0.212646,0.332886,0.138733,0.908081,-0.40367,0.72559,0.148104
-0.677734,-0.311523,0.70459,0.8125,0.0625,3.75,-0.212402,0.333008,0.139221,0.90802,-0.402628,0.726018,0.149486
-0.684082,-0.300781,0.70166,1.5,0.125,2.0625,-0.212097,0.333191,0.139465,0.90802,-0.401675,0.726488,0.150315
-0.694824,-0.305664,0.68457,-1.25,0.9375,-2.0625,-0.212585,0.333435,0.13916,0.907837,-0.403225,0.726926,0.148977
-0.681641,-0.320801,0.696777,-2.625,0.3125,-3.125,-0.213379,0.333313,0.138733,0.907776,-0.405628,0.726627,0.147218
-0.678711,-0.327637,0.700684,-1.4375,0.125,-1.8125,-0.213989,0.333191,0.138428,0.907715,-0.407439,0.726328,0.145928
-0.672363,-0.318359,0.70459,-0.25,-0.6875,0.1875,-0.213989,0.33313,0.138367,0.907715,-0.407467,0.726145,0.145793
-0.681152,-0.314453,0.700195,0.1875,-1.1875,0.25,-0.21405,0.332947,0.138428,0.907776,-0.407545,0.725812,0.145971
-0.68457,-0.3125,0.691895,-0.5,-1.9375,0.375,-0.214172,0.332764,0.13855,0.907837,-0.407738,0.725537,0.146249
-0.679688,-0.318848,0.692871,-1.25,-2.375,-0.25,-0.214539,0.332397,0.138611,0.907837,-0.408537,0.724819,0.146193
-0.663574,-0.327148,0.703613,0.6875,-2.6875,0.4375,-0.2146,0.331787,0.138611,0.908081,-0.408606,0.723579,0.146417
-0.676758,-0.312988,0.696289,3.625,-2.3125,0.3125,-0.21405,0.331543,0.138489,0.908264,-0.407242,0.722876,0.146734
-0.693359,-0.300293,0.699219,2.6875,-3.0625,0.9375,-0.213501,0.33136,0.138611,0.908447,-0.405703,0.722461,0.147642
-0.685059,-0.299805,0.697754,1.625,-3.1875,1,-0.213074,0.331055,0.138855,0.90863,-0.404349,0.721865,0.148786
-0.672852,-0.306641,0.697754,1.5625,-2.875,0.75,-0.21283,0.330688,0.138916,0.908813,-0.403614,0.721084,0.149328
-0.674805,-0.307129,0.691895,2,-2.9375,0.875,-0.212463,0.330444,0.139038,0.908997,-0.402547,0.720588,0.150092
-0.688477,-0.293945,0.69873,2.125,-3.25,2.0625,-0.211914,0.3302,0.139404,0.909119,-0.400764,0.720108,0.151602
-0.677734,-0.294434,0.69873,0.5,-3.375,2.8125,-0.211609,0.329895,0.139954,0.909241,-0.399465,0.719673,0.153376
-0.665527,-0.306641,0.702637,0,-3,2.375,-0.211487,0.329468,0.140381,0.909363,-0.398714,0.718942,0.154718
-0.657715,-0.306641,0.700195,1.6875,-2.25,1.5,-0.211182,0.329163,0.140564,0.909546,-0.397746,0.718354,0.155595
-0.646973,-0.296875,0.700195,2.3125,-1.6875,0,-0.210815,0.328796,0.140442,0.90979,-0.396874,0.717477,0.155799
-0.63916,-0.29248,0.699707,1.8125,-2.375,-1.375,-0.21051,0.328247,0.140198,0.910095,-0.396236,0.716167,0.155718
-0.617188,-0.296875,0.696289,0.8125,-2.1875,-1.9375,-0.21051,0.327515,0.139832,0.9104,-0.396445,0.714462,0.155122
-0.621094,-0.303223,0.6875,0.3125,-0.3125,-3.9375,-0.210815,0.327087,0.139099,0.910583,-0.397793,0.713295,0.153223
-0.637207,-0.292969,0.68457,-0.9375,0.9375,-7.375,-0.211426,0.326843,0.137939,0.910706,-0.400317,0.712389,0.149928
-0.615723,-0.305664,0.687988,-3.625,2.75,-7.75,-0.212585,0.32666,0.136719,0.910706,-0.4043,0.711686,0.145957
-0.603516,-0.308594,0.691895,-2.5,3.375,-8.6875,-0.213684,0.326416,0.135254,0.910767,-0.408321,0.710722,0.141481
-0.581543,-0.30957,0.698242,0.5,4.8125,-10.125,-0.214355,0.326172,0.133301,0.91095,-0.41165,0.709428,0.136213
-0.589355,-0.291504,0.697754,1.5,6.75,-12.125,-0.214783,0.326294,0.130981,0.911133,-0.41475,0.708716,0.130138
-0.590332,-0.277832,0.69043,-0.4375,7.8125,-15.875,-0.215576,0.326538,0.128235,0.911255,-0.419171,0.708121,0.122643
-0.593262,-0.296387,0.692871,-1.6875,8.3125,-19.25,-0.21698,0.32666,0.124939,0.911316,-0.425562,0.707058,0.113312
-0.590332,-0.325684,0.696289,-0.5,9.5,-23.0625,-0.218628,0.326721,0.12085,0.911499,-0.433253,0.705552,0.101914
-0.595215,-0.327148,0.69043,1.9375,12.375,-26.8125,-0.220093,0.327271,0.115906,0.91156,-0.441267,0.704527,0.0883824
-0.601563,-0.32373,0.685059,3.25,15.6875,-31.4375,-0.221619,0.328247,0.110046,0.91156,-0.450334,0.70392,0.0723938
-0.59668,-0.328613,0.678711,4,18.875,-37.75,-0.22345,0.329468,0.103027,0.911499,-0.461231,0.7032,0.0532267
-0.609863,-0.333008,0.677246,5.25,23.75,-45.6875,-0.225525,0.331299,0.0945435,0.911255,-0.474196,0.702908,0.0299857
-0.632813,-0.337402,0.686523,5.9375,27.6875,-51.6875,-0.227722,0.333618,0.0849609,0.910828,-0.488621,0.702899,0.00370271
-0.624512,-0.335938,0.689941,6.3125,30.6875,-60.1875,-0.230286,0.335876,0.0739136,0.910278,-0.505167,0.70171,-0.0263627
-0.606934,-0.352539,0.680664,5.5,33.0625,-69.0625,-0.233459,0.338074,0.0613403,0.909607,-0.524501,0.699283,-0.0604872
-0.647949,-0.376465,0.67627,6.125,36.25,-76.875,-0.237061,0.340637,0.0473633,0.908508,-0.54618,0.696321,-0.0984998
-0.680176,-0.393066,0.663574,6.3125,39.1875,-84.125,-0.240967,0.343689,0.0322876,0.907043,-0.569817,0.693252,-0.139648
-0.663574,-0.414551,0.65918,6.625,41.5,-91.75,-0.2453,0.346497,0.0157471,0.905212,-0.595358,0.688049,-0.1842
-0.637695,-0.433594,0.661621,2.75,47.25,-99.875,-0.25061,0.349548,-0.0020752,0.902771,-0.624361,0.681661,-0.232537
-0.657715,-0.441406,0.625,-1.3125,49.625,-108.875,-0.257263,0.3526,-0.0212402,0.899414,-0.657332,0.673005,-0.284715
-0.696289,-0.474121,0.622559,-3,48.8125,-117.438,-0.264587,0.355042,-0.0415649,0.89563,-0.691715,0.661089,-0.338803
-0.712402,-0.516113,0.619141,-4.9375,48.125,-123.75,-0.272461,0.356995,-0.0627441,0.891235,-0.726741,0.646181,-0.393857
-0.692383,-0.546387,0.611328,-7.5625,50.0625,-129.688,-0.280945,0.358765,-0.0846558,0.886047,-0.762563,0.628829,-0.449803
-0.681641,-0.572266,0.574707,-12.8125,53.75,-139.375,-0.290588,0.360535,-0.107849,0.8797,-0.80081,0.608509,-0.50825
-0.681152,-0.612305,0.53125,-19.0625,56.9375,-148.25,-0.301575,0.362305,-0.132141,0.871948,-0.841479,0.584906,-0.56864
-0.698242,-0.63623,0.508301,-25.9375,58.0625,-163.125,-0.314148,0.363403,-0.158081,0.862671,-0.884129,0.555859,-0.630924
-0.687988,-0.643066,0.549805,-41.375,54.25,-172.563,-0.329346,0.363403,-0.184021,0.851807,-0.929306,0.521159,-0.691266
-0.634277,-0.73291,0.516113,-57.8125,50.8125,-181.063,-0.347351,0.362488,-0.209839,0.838989,-0.977242,0.48078,-0.749331
-0.552246,-0.824219,0.458984,-67.5,53.5625,-186.25,-0.36676,0.361572,-0.235779,0.824097,-1.02611,0.436745,-0.806065
-0.477051,-0.901855,0.418945,-63.0625,63.5625,-185.438,-0.384705,0.36145,-0.262268,0.8078,-1.07118,0.392141,-0.862519
-0.44873,-0.949219,0.396973,-54.4375,74.375,-185.438,-0.400452,0.362,-0.289673,0.790344,-1.11111,0.347139,-0.919438
-0.441406,-0.880371,0.397949,-50.9375,68.4375,-184.438,-0.415222,0.361206,-0.316223,0.772705,-1.14538,0.30009,-0.971213
-0.312988,-0.838867,0.285645,-61.625,62.0625,-180.813,-0.431213,0.359863,-0.340881,0.753845,-1.17983,0.251211,-1.01797
-0.182617,-0.919922,0.187988,-72.125,69.8125,-170.875,-0.447327,0.360474,-0.36377,0.733215,-1.21625,0.204586,-1.06375
-0.144531,-1.04443,0.20752,-64.9375,75.9375,-148.313,-0.460266,0.362671,-0.384338,0.713379,-1.24767,0.164387,-1.10678
-0.130371,-1.07666,0.228027,-45.625,71.8125,-132.125,-0.469482,0.364075,-0.403503,0.695862,-1.26977,0.128166,-1.14543
-0.115723,-1.06348,0.206055,-40.4375,65.3125,-128.563,-0.477966,0.36438,-0.421631,0.678955,-1.28832,0.0918736,-1.18044
-0.0429688,-0.993652,0.234863,-47,60.375,-129.5,-0.487244,0.364075,-0.438843,0.661377,-1.30728,0.0539607,-1.21296
0.0673828,-0.883789,0.25,-58.1875,53.6875,-119.5,-0.497314,0.364258,-0.453552,0.643616,-1.32839,0.0177689,-1.24161
0.168945,-0.964355,0.188477,-65.625,49.3125,-105.875,-0.50769,0.365417,-0.465637,0.626038,-1.35158,-0.0152695,-1.2668
0.185547,-1.02246,0.211426,-48.75,43.875,-87.9375,-0.515686,0.365234,-0.476746,0.611023,-1.36785,-0.0453845,-1.28812
0.170898,-1.02588,0.195313,-27.1875,36.1875,-72.9375,-0.520752,0.364075,-0.486572,0.599609,-1.37657,-0.0702194,-1.30566
0.158691,-1.00586,0.17041,-13.1875,31.375,-64.375,-0.524048,0.362183,-0.495544,0.590454,-1.38046,-0.0918025,-1.32063
0.202637,-0.979004,0.231934,-0.8125,19.0625,-46.375,-0.525574,0.359009,-0.502747,0.5849,-1.37872,-0.108706,-1.33036
0.219238,-1.15576,0.330078,32,5.375,-20.625,-0.522888,0.35376,-0.508301,0.585754,-1.36506,-0.117406,-1.33401
0.194336,-1.25977,0.299316,27.625,-1.75,7.6875,-0.519775,0.351379,-0.509399,0.588928,-1.35495,-0.115932,-1.33288
0.147461,-0.980469,0.202148,5.9375,-2.1875,14.5625,-0.518799,0.351746,-0.508179,0.590637,-1.35349,-0.112011,-1.33095
0.121582,-0.962402,0.182617,-29.9375,2.5625,8.9375,-0.521301,0.355469,-0.505676,0.588379,-1.36434,-0.109135,-1.33123
0.0825195,-1.08984,0.186035,-40.5,3,-3,-0.52533,0.359497,-0.503357,0.58429,-1.3789,-0.108971,-1.33235
0.0878906,-1.15381,0.196777,-10,5.625,-11.125,-0.526489,0.360352,-0.504028,0.582153,-1.38261,-0.111402,-1.33496
0.0810547,-1.06445,0.175781,27.875,10.5625,-17.3125,-0.523865,0.35791,-0.508057,0.58252,-1.37327,-0.115584,-1.33965
0.09375,-0.926758,0.187988,38.625,12.625,-18.875,-0.519958,0.354248,-0.513367,0.583618,-1.3594,-0.12066,-1.34534
0.0917969,-0.896484,0.196777,25.5625,11.9375,-17.6875,-0.517273,0.351807,-0.517639,0.58374,-1.34998,-0.12512,-1.35076
0.0917969,-0.94043,0.20459,7.8125,9.875,-15.1875,-0.516357,0.351013,-0.520325,0.582581,-1.34675,-0.128715,-1.35525
0.102051,-0.991211,0.174316,-5.0625,9,-14.9375,-0.517151,0.351563,-0.521973,0.580139,-1.34916,-0.132353,-1.35951
0.126465,-1.03125,0.161133,-13.875,9.9375,-17.25,-0.519104,0.352722,-0.523315,0.576416,-1.35487,-0.13711,-1.36394
0.149414,-1.03027,0.194336,-7.375,9.8125,-16.5,-0.520203,0.353088,-0.525269,0.573486,-1.35763,-0.141986,-1.36857
0.131836,-1.05176,0.233398,2.9375,7.875,-14.375,-0.519897,0.352478,-0.527466,0.572083,-1.35596,-0.145678,-1.37233
0.138672,-1.02832,0.240234,13.9375,5.875,-12.6875,-0.518494,0.350708,-0.53009,0.572021,-1.35026,-0.149023,-1.37539
0.166016,-0.998047,0.224121,15.875,3.625,-11.25,-0.517395,0.348572,-0.532532,0.572083,-1.34467,-0.152829,-1.37755
0.165527,-0.958008,0.237793,15.9375,2.1875,-11.8125,-0.516235,0.346069,-0.534973,0.572327,-1.33841,-0.156857,-1.37921
0.140625,-0.932617,0.261719,18.5,0.4375,-10.0625,-0.514648,0.343384,-0.537231,0.573242,-1.33102,-0.159968,-1.38029
0.111816,-0.927246,0.260254,15.875,-1.125,-7.9375,-0.513123,0.341309,-0.538757,0.574402,-1.32472,-0.161502,-1.38069
0.123535,-0.9375,0.253906,12.75,-1.875,-7.375,-0.512146,0.339417,-0.539978,0.575195,-1.31984,-0.163359,-1.38069
0.131836,-0.918945,0.264648,13.4375,-2.3125,-7.375,-0.511108,0.337341,-0.541321,0.576111,-1.3146,-0.165408,-1.38072
0.118164,-0.915039,0.273926,11.375,-2.125,-5.875,-0.510071,0.335693,-0.542358,0.577087,-1.31001,-0.166603,-1.38073
0.121582,-0.927246,0.286621,7.5,-2.9375,-4.125,-0.509277,0.334473,-0.542908,0.577942,-1.30656,-0.167147,-1.38025
0.151855,-0.983398,0.291992,7.0625,-3.5625,-3.3125,-0.508789,0.333191,-0.543335,0.578674,-1.30367,-0.168058,-1.3794
0.171875,-0.984375,0.296387,14.125,-3,-3.4375,-0.50769,0.331177,-0.544312,0.579895,-1.29844,-0.169397,-1.37879
0.178223,-0.92334,0.299805,16.0625,-1.4375,0.125,-0.505981,0.329224,-0.545349,0.581543,-1.29206,-0.169772,-1.37845
0.181641,-0.90332,0.314453,5.5625,0,3.3125,-0.504944,0.328491,-0.545715,0.58252,-1.28885,-0.169212,-1.3783
0.180664,-0.925293,0.311523,-3.4375,-0.5,4.3125,-0.504822,0.328796,-0.545349,0.582825,-1.28908,-0.168138,-1.37793
0.189453,-0.961426,0.307129,-9.375,-2.3125,4.1875,-0.505615,0.329529,-0.544434,0.582581,-1.29182,-0.167374,-1.37689
0.188477,-0.966309,0.293457,-8.5,-2.8125,6.3125,-0.506348,0.330322,-0.543274,0.582581,-1.29456,-0.166054,-1.37541
0.185059,-0.968262,0.271484,-9.5625,-2.8125,9.8125,-0.50708,0.331665,-0.541565,0.582703,-1.2981,-0.163436,-1.37349
0.177246,-1.00049,0.25293,-10.8125,-3.875,11.5625,-0.508118,0.333313,-0.539368,0.582947,-1.30278,-0.160201,-1.37096
0.165527,-1.00098,0.265137,-13.75,-3.625,11.8125,-0.509216,0.335327,-0.537048,0.583008,-1.30811,-0.15659,-1.36871
0.156738,-0.984863,0.255371,-22.9375,-2.4375,14,-0.510925,0.33844,-0.534058,0.582397,-1.31632,-0.1521,-1.36655
0.13623,-0.977539,0.228027,-33.0625,-3.625,13.0625,-0.513855,0.342468,-0.530334,0.580872,-1.32848,-0.147706,-1.36417
0.12207,-1.02539,0.217285,-34.0625,-5.4375,13.625,-0.517029,0.346619,-0.526123,0.579407,-1.3414,-0.142861,-1.36104
0.108398,-1.08252,0.205566,-19.75,-3.25,12.125,-0.518616,0.349792,-0.522949,0.578979,-1.34955,-0.13781,-1.35888
0.0991211,-1.07764,0.182129,-2.8125,0.1875,8.1875,-0.518555,0.35144,-0.521423,0.579407,-1.35193,-0.133919,-1.35809
0.09375,-1.00391,0.1875,7.4375,2.8125,4.375,-0.517334,0.35199,-0.521301,0.580322,-1.3502,-0.131215,-1.35871
0.0917969,-1.01416,0.169922,10.375,4.5,-1.9375,-0.516174,0.35199,-0.521973,0.580688,-1.34774,-0.130434,-1.36017
0.0947266,-1.0249,0.160156,5.1875,6.8125,-8.625,-0.515869,0.352112,-0.523193,0.579773,-1.34722,-0.131891,-1.36293
0.0957031,-1.00879,0.164063,7.3125,10.375,-13.625,-0.51532,0.35199,-0.52533,0.57843,-1.34579,-0.134629,-1.3673
0.123535,-0.970215,0.214844,11.5,12.625,-11.625,-0.513672,0.351318,-0.528259,0.577637,-1.34121,-0.137266,-1.37262
0.115723,-0.909668,0.237793,10.4375,10.875,-8.3125,-0.511902,0.350708,-0.530701,0.577332,-1.3365,-0.138829,-1.37701
0.117188,-0.910645,0.239746,1.8125,5.5,-4.125,-0.51123,0.350708,-0.531799,0.576965,-1.33507,-0.139503,-1.3794
0.124023,-0.944824,0.23877,-3.6875,0.6875,-2.125,-0.511475,0.350952,-0.531799,0.576538,-1.33592,-0.139784,-1.37974
0.117676,-0.960938,0.240723,-1.6875,-1.625,-2.625,-0.511719,0.35083,-0.531799,0.576416,-1.33625,-0.140275,-1.37955
0.123535,-0.959961,0.239746,5.3125,-2.1875,-2.8125,-0.511414,0.349976,-0.532166,0.576904,-1.33434,-0.140975,-1.37911
0.151855,-0.971191,0.240234,11.5625,-3,-2.6875,-0.510681,0.348267,-0.532898,0.57782,-1.33023,-0.142291,-1.3782
0.14502,-0.998535,0.248047,14.6875,-2.875,-3.6875,-0.509705,0.346313,-0.533875,0.578979,-1.32529,-0.143714,-1.37752
0.140137,-1.00049,0.268066,18.1875,-3.75,-2.8125,-0.50824,0.343994,-0.534973,0.580688,-1.31882,-0.144788,-1.37662
0.169434,-0.995605,0.27002,18.1875,-4.0625,-0.25,-0.506836,0.341675,-0.535828,0.582458,-1.31248,-0.145645,-1.3752
0.181641,-0.962402,0.269531,14.3125,-3.6875,1.6875,-0.505737,0.339783,-0.536438,0.583984,-1.30743,-0.146259,-1.37388
0.16748,-0.954102,0.266602,6.375,-3.125,2.375,-0.50531,0.338867,-0.536438,0.584839,-1.30521,-0.146291,-1.37259
0.154785,-0.977539,0.280273,2.75,-2.75,2,-0.505066,0.338379,-0.536255,0.58551,-1.30402,-0.145957,-1.37151
0.147949,-0.97168,0.276367,3.125,-2.1875,1.375,-0.504822,0.337952,-0.536133,0.58606,-1.3029,-0.145698,-1.37065
0.137207,-0.976563,0.273926,3.375,-0.875,-0.125,-0.504456,0.337585,-0.536255,0.586487,-1.30162,-0.145568,-1.37042
0.141602,-0.966797,0.275391,2.5625,-1.625,2.0625,-0.504089,0.337402,-0.536072,0.587097,-1.30062,-0.144786,-1.36978
0.133301,-0.979492,0.268066,3.375,-2.25,3.9375,-0.503723,0.33728,-0.535583,0.587952,-1.29974,-0.143454,-1.36858
0.119629,-0.992188,0.251465,2.625,-2.4375,3.1875,-0.503479,0.337402,-0.534912,0.588623,-1.29943,-0.141904,-1.3673
0.121094,-0.99707,0.255371,3.875,-1.25,0.25,-0.503235,0.33728,-0.53479,0.58905,-1.29878,-0.14137,-1.36688
0.142578,-1,0.273926,6.25,-0.4375,-0.6875,-0.502686,0.33667,-0.535156,0.5896,-1.29677,-0.141501,-1.36685
0.140137,-0.994629,0.270508,11.0625,-0.6875,0.8125,-0.501648,0.335754,-0.535522,0.590637,-1.29329,-0.141138,-1.36639
0.152832,-0.997559,0.27002,7.3125,-0.75,0.5625,-0.501038,0.335083,-0.535828,0.591248,-1.29105,-0.141174,-1.36613
0.163086,-1.01123,0.26416,2.6875,0.6875,-1.4375,-0.501099,0.334778,-0.536133,0.591125,-1.29073,-0.141996,-1.36637
0.154785,-0.991211,0.275879,4.8125,2.5625,-1.5,-0.500549,0.334473,-0.536743,0.591125,-1.2891,-0.142383,-1.36727
0.12207,-0.981934,0.277832,4.9375,3,0,-0.499695,0.334534,-0.53717,0.591492,-1.28744,-0.141567,-1.36834
0.10791,-0.967773,0.276855,1.625,1.75,0.1875,-0.499146,0.3349,-0.53717,0.591675,-1.28683,-0.14041,-1.36886
0.125488,-0.960938,0.274902,-1.5,1,0.5625,-0.499146,0.335327,-0.537048,0.591614,-1.28748,-0.139817,-1.36921
0.128418,-0.960938,0.283691,-0.6875,0.375,-0.3125,-0.499146,0.335327,-0.537048,0.591614,-1.28748,-0.139817,-1.36921
0.136719,-0.979004,0.301758,2.75,-1.5,-0.1875,-0.49884,0.3349,-0.537109,0.592041,-1.28623,-0.139769,-1.36876
0.14209,-0.982422,0.312988,7.625,-3.125,0.25,-0.498108,0.33374,-0.537354,0.593079,-1.28305,-0.139908,-1.36769
0.155762,-0.962891,0.318359,11.375,-4.5625,1.375,-0.497131,0.332092,-0.53772,0.594543,-1.27869,-0.140207,-1.36624
0.156738,-0.945801,0.316895,7.9375,-4.4375,2.625,-0.49646,0.330811,-0.53772,0.595764,-1.27548,-0.140201,-1.36448
0.140625,-0.955566,0.316895,3.75,-3.4375,2.8125,-0.496033,0.3302,-0.537476,0.59668,-1.27376,-0.139617,-1.36312
0.150391,-0.956055,0.321777,1.875,-2.625,3.5,-0.495728,0.329834,-0.53717,0.597412,-1.27264,-0.138933,-1.36197
0.165527,-0.952148,0.343262,0.9375,-4.3125,4.5,-0.495483,0.329224,-0.536804,0.598267,-1.27129,-0.13847,-1.36034
0.163086,-0.942871,0.336914,-5.3125,-5.875,7.875,-0.495911,0.329346,-0.535522,0.598999,-1.27242,-0.137015,-1.35771
0.138672,-0.929199,0.37207,-18.125,-6.5,12.9375,-0.497009,0.330933,-0.53302,0.599487,-1.27709,-0.133448,-1.35446
0.14209,-0.908203,0.373535,-38,-8.9375,21.125,-0.499817,0.334595,-0.528442,0.599121,-1.28832,-0.12767,-1.34962
0.174316,-0.949219,0.351563,-47.8125,-10,30.25,-0.50354,0.339661,-0.522339,0.598511,-1.30358,-0.119742,-1.34365
0.150391,-0.937988,0.347168,-44.1875,-13.75,40.75,-0.506409,0.34491,-0.515015,0.599487,-1.31746,-0.108289,-1.33568
0.127441,-0.886719,0.293457,-35,-24.9375,53.9375,-0.508667,0.349426,-0.505615,0.602905,-1.32909,-0.0931724,-1.32268
0.162598,-0.966797,0.257324,-23.375,-33.5,66.5625,-0.510254,0.353027,-0.494812,0.608459,-1.33803,-0.0754254,-1.30591
0.15332,-1.0415,0.247559,-2.5,-42.5,76,-0.509949,0.354675,-0.483276,0.616882,-1.34008,-0.0553347,-1.28519
0.104492,-1.09668,0.231934,19.8125,-51.9375,89.375,-0.507202,0.354919,-0.47052,0.628784,-1.33494,-0.0309671,-1.2604
0.0722656,-1.18896,0.237305,41.875,-58.4375,105.875,-0.500977,0.354309,-0.456238,0.64447,-1.32124,-0.000445575,-1.23171
0.0449219,-1.19824,0.233887,59.125,-61.0625,119.625,-0.491882,0.353027,-0.440979,0.662537,-1.30052,0.0339741,-1.20035
-0.0126953,-1.15332,0.236328,66.5625,-60.5,130.25,-0.480957,0.35199,-0.424683,0.681519,-1.27626,0.0713274,-1.16747
-0.0795898,-1.11865,0.247559,60.375,-58.5625,139.875,-0.469604,0.352234,-0.406677,0.700012,-1.25272,0.111411,-1.13325
-0.156738,-1.08008,0.254395,48.6875,-62.4375,147.625,-0.459106,0.35321,-0.38623,0.717834,-1.23151,0.153048,-1.09563
-0.230957,-1.12549,0.265625,43.8125,-67.75,155,-0.448669,0.354248,-0.363831,0.735413,-1.20985,0.195806,-1.05445
-0.308105,-1.13867,0.259277,44.6875,-69.75,159.5,-0.437622,0.355103,-0.340332,0.752686,-1.18591,0.238955,-1.01072
-0.413086,-1.07471,0.279785,54.875,-65.375,159.125,-0.4245,0.355652,-0.317444,0.769775,-1.15656,0.281747,-0.966881
-0.478516,-0.973633,0.291016,57.3125,-64.9375,160,-0.4104,0.355957,-0.294312,0.786316,-1.12388,0.323849,-0.921312
-0.499023,-0.895508,0.324707,52.125,-65.8125,164.25,-0.396301,0.356262,-0.269897,0.801941,-1.08983,0.365569,-0.872425
-0.53418,-0.865723,0.33252,45.5,-65.6875,166.375,-0.382629,0.356689,-0.244568,0.816406,-1.0554,0.406339,-0.821105
-0.569336,-0.803223,0.342773,41.6875,-61.8125,166.375,-0.368896,0.357544,-0.218994,0.829529,-1.01994,0.446281,-0.768708
-0.592773,-0.724121,0.362305,34.4375,-60.1875,162.063,-0.355957,0.358215,-0.193481,0.841125,-0.984358,0.483483,-0.715065
-0.618164,-0.692383,0.390625,24.5,-60.9375,161.313,-0.344177,0.358765,-0.167297,0.851318,-0.949292,0.518624,-0.659028
-0.61377,-0.698242,0.424805,27.9375,-60.8125,166.438,-0.33136,0.35907,-0.140503,0.861084,-0.909553,0.553026,-0.599243
-0.64209,-0.647461,0.422363,32.5625,-60.125,155.063,-0.318176,0.358398,-0.115601,0.869995,-0.866653,0.582421,-0.53979
-0.618164,-0.568359,0.413574,24,-63.0625,150.063,-0.306396,0.356934,-0.0906372,0.877747,-0.824292,0.607788,-0.47831
-0.586426,-0.539551,0.437988,17,-67.9375,154.5,-0.295227,0.354553,-0.0643311,0.884827,-0.779972,0.63038,-0.411624
-0.545898,-0.527832,0.492676,14.9375,-64.9375,160.875,-0.283691,0.352539,-0.0371094,0.89093,-0.733039,0.652431,-0.341558
-0.514648,-0.489746,0.550781,14.6875,-55.875,161.438,-0.271851,0.351501,-0.0101929,0.895752,-0.684853,0.674074,-0.271308
-0.564453,-0.433105,0.500488,4.875,-54.1875,133.438,-0.263,0.349304,0.0128784,0.899231,-0.644302,0.687988,-0.209384
-0.543945,-0.414063,0.479004,-13.375,-54.9375,112.563,-0.258179,0.345825,0.0338135,0.901428,-0.61374,0.695713,-0.153825
-0.481445,-0.424316,0.506348,-21.75,-49.875,106.25,-0.255066,0.342407,0.0540161,0.902588,-0.587839,0.701888,-0.101228
-0.429688,-0.381348,0.643066,-14.125,-49.75,107.125,-0.250366,0.338684,0.0737915,0.903931,-0.557909,0.70659,-0.0475953
-0.492676,-0.37207,0.774414,0.25,-50.3125,95.125,-0.243469,0.332825,0.0906982,0.906433,-0.52361,0.70434,0.00309529
-0.625488,-0.324707,0.789063,-16.1875,-51.625,63.75,-0.240479,0.326233,0.104126,0.908203,-0.50233,0.697954,0.0420819
-0.640625,-0.311035,0.773926,-34.8125,-56.4375,45.25,-0.241333,0.318115,0.115967,0.909424,-0.492128,0.68746,0.0743171
-0.693848,-0.355469,0.785645,-35.9375,-53.0625,26.4375,-0.243835,0.31012,0.124573,0.9104,-0.489259,0.675665,0.0970217
-0.61084,-0.411621,0.839355,-25.8125,-49.0625,26.9375,-0.245117,0.301819,0.132202,0.911743,-0.484459,0.662605,0.118376
-0.583984,-0.408691,0.822754,-14.25,-39.9375,21.5625,-0.245117,0.294983,0.137939,0.913147,-0.478691,0.65146,0.135358
-0.631348,-0.364746,0.805176,-11.1875,-32.4375,15,-0.244873,0.289856,0.142395,0.914124,-0.473841,0.643083,0.148476
-0.589844,-0.348145,0.80957,-14,-27.0625,9.9375,-0.245239,0.285095,0.145996,0.914978,-0.471374,0.635177,0.158856
-0.5625,-0.383301,0.818359,-14.75,-24.25,4.25,-0.246399,0.280212,0.148376,0.915771,-0.471783,0.626534,0.165775
-0.554688,-0.412109,0.781738,-11.0625,-24.875,-0.9375,-0.247681,0.275208,0.149658,0.916748,-0.473335,0.617167,0.170127
-0.533203,-0.425781,0.752441,-2.625,-29.5625,-1.25,-0.247803,0.269714,0.150574,0.918213,-0.472356,0.606427,0.174735
-0.490234,-0.414551,0.752441,3.25,-26,2.9375,-0.246765,0.264893,0.151733,0.919678,-0.468583,0.596943,0.180363
-0.492188,-0.387207,0.73291,5.1875,-16.5,1.875,-0.245605,0.261841,0.152283,0.920776,-0.465188,0.590765,0.183838
-0.570801,-0.367188,0.713379,1.1875,-12.125,-6.125,-0.245483,0.26001,0.151855,0.921448,-0.465044,0.586833,0.18381
-0.536133,-0.397461,0.738281,-0.1875,-12.9375,2.5,-0.2453,0.257874,0.15271,0.921936,-0.463876,0.58285,0.186816
-0.525879,-0.366699,0.710938,4.5625,-13,4.6875,-0.244141,0.256165,0.153748,0.922546,-0.460352,0.579636,0.190717
-0.550781,-0.324219,0.711426,5.375,-9.5,-1.9375,-0.242859,0.255066,0.153748,0.923157,-0.457245,0.577116,0.192077
-0.610352,-0.328125,0.759766,1,-8.25,-6.0625,-0.24231,0.254272,0.153381,0.923584,-0.456136,0.575215,0.191982
-0.62793,-0.368652,0.766602,0.9375,-10.875,-2.0625,-0.241882,0.253235,0.153625,0.92395,-0.454921,0.573138,0.193276
-0.612305,-0.380859,0.759766,4.3125,-10.75,3.5,-0.240906,0.25238,0.154541,0.924316,-0.452025,0.571647,0.196371
-0.643555,-0.366699,0.768555,7.375,-7.3125,9.3125,-0.239075,0.252686,0.15625,0.924377,-0.446654,0.572654,0.201307
-0.737305,-0.316406,0.756348,4.125,-4.75,12.625,-0.237366,0.254578,0.158813,0.923889,-0.441112,0.57734,0.20747
-0.720215,-0.310059,0.756836,-0.5,-8.6875,16.5,-0.236084,0.255615,0.162354,0.92334,-0.435877,0.580806,0.21593
-0.626465,-0.327148,0.768066,2.6875,-11.625,16.4375,-0.234375,0.255249,0.165588,0.923279,-0.42976,0.581109,0.224557
-0.600586,-0.324707,0.77002,6.5,-12.25,16.5625,-0.232056,0.2547,0.168579,0.923462,-0.422379,0.580749,0.23313
-0.615234,-0.323242,0.782227,4.375,-12.0625,24.375,-0.229675,0.254456,0.172974,0.92334,-0.413967,0.58159,0.244835
-0.595215,-0.328125,0.783691,2.4375,-13.5,25.8125,-0.227661,0.253723,0.177673,0.923157,-0.406219,0.581587,0.257154
-0.590332,-0.33252,0.750977,0.25,-14.375,24.5,-0.226257,0.252869,0.18219,0.922852,-0.40003,0.581364,0.268674
-0.624023,-0.327637,0.748535,-3.625,-15,28.875,-0.225342,0.252258,0.187683,0.922119,-0.394319,0.582137,0.282007
-0.60498,-0.349609,0.75,-7.5,-16.375,28.875,-0.22522,0.251099,0.193237,0.921326,-0.390485,0.58204,0.295125
-0.52832,-0.367188,0.754395,-8.9375,-17.5,27.125,-0.225464,0.248779,0.198425,0.920776,-0.387892,0.579512,0.30747
-0.463379,-0.339844,0.758789,-9.8125,-13.9375,20.5625,-0.225891,0.246277,0.202515,0.920471,-0.386537,0.576239,0.317222
-0.432617,-0.317383,0.735352,-12.6875,-13.3125,10.875,-0.227112,0.243286,0.205139,0.920349,-0.388062,0.57162,0.323187
-0.405273,-0.338379,0.724609,-11.1875,-17.8125,3.875,-0.228394,0.239136,0.206665,0.920776,-0.390656,0.564251,0.326932
-0.381348,-0.336914,0.751953,-11.5,-17.125,-2.5625,-0.229858,0.234558,0.207153,0.921509,-0.394426,0.555686,0.328351
-0.371094,-0.386719,0.767578,-15.625,-10.125,0,-0.232483,0.230774,0.207764,0.921631,-0.400622,0.54917,0.329102
-0.409668,-0.424316,0.758789,-14.0625,-1.0625,2.5,-0.235474,0.228943,0.208252,0.921265,-0.407467,0.546745,0.328873
-0.457031,-0.414063,0.776367,-7.8125,5.4375,4.9375,-0.237427,0.228882,0.208801,0.920654,-0.411614,0.547544,0.328905
-0.501465,-0.381348,0.771484,-5,4.5,1.875,-0.23877,0.229248,0.208923,0.920166,-0.414552,0.548797,0.328218
-0.480469,-0.376465,0.793457,-6.875,6.25,-2.8125,-0.240356,0.229309,0.208313,0.919861,-0.418547,0.549198,0.325819
-0.507813,-0.393066,0.786621,-5.5,9.5,-6.875,-0.242249,0.22998,0.206848,0.919556,-0.423708,0.550575,0.321131
-0.564453,-0.371582,0.804199,-1,3.3125,-11.875,-0.243042,0.230164,0.204834,0.919739,-0.426727,0.550305,0.316033
-0.566406,-0.356934,0.78418,-2.5625,-4.0625,-14.4375,-0.243896,0.229248,0.202881,0.920166,-0.429976,0.547854,0.311399
-0.530273,-0.364746,0.811035,-7.3125,-6.5,-9.4375,-0.245117,0.227478,0.201965,0.920532,-0.433553,0.544291,0.309187
-0.498535,-0.393555,0.804688,-6.9375,-4,-6.3125,-0.24646,0.225891,0.201294,0.920654,-0.437176,0.541191,0.307355
-0.519531,-0.38916,0.784668,-4.0625,0.3125,-4.125,-0.247498,0.225525,0.200684,0.920593,-0.439952,0.540507,0.30547
-0.54541,-0.380371,0.801758,-0.5,0.8125,-1.4375,-0.247681,0.225708,0.200439,0.920593,-0.440519,0.540845,0.304766
-0.532715,-0.367188,0.800781,-0.6875,2.875,-3.125,-0.247864,0.226074,0.19989,0.920532,-0.441205,0.541367,0.303281
-0.491699,-0.397461,0.804688,-2.3125,3,-5.625,-0.248718,0.225769,0.198853,0.920654,-0.443836,0.540573,0.300563
-0.477051,-0.422363,0.789551,0.5625,2.8125,-8.75,-0.249451,0.22522,0.197021,0.920959,-0.446631,0.538828,0.296211
-0.501953,-0.38916,0.775879,3.5625,2,-9.1875,-0.249451,0.225098,0.195251,0.921387,-0.447686,0.537762,0.292324
-0.453613,-0.380859,0.787109,4.3125,5.25,-11.9375,-0.24939,0.224915,0.19281,0.921936,-0.448969,0.536212,0.286991
-0.439941,-0.394043,0.805176,6.5,11.875,-16.4375,-0.249329,0.225403,0.189209,0.922607,-0.450896,0.535495,0.278867
-0.45459,-0.431152,0.759277,11.5,14.8125,-24,-0.249512,0.22644,0.18396,0.92334,-0.454276,0.535142,0.266719
-0.521484,-0.383789,0.719238,20.1875,18.1875,-27.4375,-0.24823,0.229187,0.177917,0.924194,-0.454711,0.53746,0.253075
-0.485352,-0.310059,0.72168,14.6875,20.8125,-31.375,-0.247314,0.231812,0.171509,0.924988,-0.456258,0.539467,0.238423
-0.383301,-0.315918,0.753906,5.9375,23.125,-39.3125,-0.247925,0.233032,0.163879,0.925903,-0.462086,0.538432,0.220685
-0.405273,-0.356445,0.776367,8.3125,35.375,-52.5625,-0.249329,0.235657,0.153442,0.926636,-0.471415,0.538969,0.19567
-0.519531,-0.333496,0.758301,11.6875,45.375,-59.4375,-0.250427,0.240906,0.141602,0.92688,-0.481164,0.54393,0.166531
-0.590332,-0.305176,0.756836,9.5625,52.4375,-66.9375,-0.251892,0.247559,0.12854,0.926636,-0.49296,0.551012,0.133621
-0.581543,-0.349121,0.796875,8.25,59,-75.25,-0.25415,0.254333,0.113831,0.926147,-0.508073,0.557376,0.0962666
-0.523438,-0.434082,0.81543,11.5,67.9375,-84.125,-0.256958,0.261169,0.0966187,0.925415,-0.526435,0.562183,0.0527442
-0.570313,-0.435547,0.79541,18.375,83.75,-92.5,-0.259094,0.270691,0.0772095,0.923889,-0.545956,0.570658,0.00284845
-0.671387,-0.441406,0.773438,25.5,84.1875,-101.938,-0.260681,0.28009,0.0558472,0.92218,-0.566201,0.577229,-0.0513686
-0.711426,-0.478027,0.79541,27.5,74.8125,-112,-0.262268,0.287476,0.0331421,0.920532,-0.587042,0.578353,-0.10742
-0.666016,-0.51416,0.765137,21.9375,67.3125,-124.563,-0.265198,0.292786,0.0090332,0.918579,-0.611111,0.57363,-0.165891
-0.647949,-0.484375,0.733398,6.8125,72.375,-139.938,-0.271057,0.297974,-0.0169678,0.9151,-0.643113,0.565873,-0.230185
-0.653809,-0.443848,0.65918,-8.9375,71.875,-152.75,-0.279846,0.30249,-0.0441284,0.910034,-0.681846,0.55372,-0.297861
-0.601563,-0.509277,0.632813,-23.25,68.6875,-161.813,-0.291199,0.305725,-0.0717773,0.903625,-0.725063,0.536021,-0.366109
-0.518066,-0.639648,0.602539,-27.25,70.75,-168.625,-0.303528,0.308594,-0.100464,0.895813,-0.769586,0.514268,-0.435547
-0.489746,-0.682129,0.546387,-17.1875,76.75,-176.688,-0.314392,0.311523,-0.131104,0.887085,-0.810437,0.489585,-0.506953
-0.504395,-0.666504,0.54248,0.4375,82.875,-184.75,-0.322266,0.314209,-0.164124,0.877747,-0.843919,0.462078,-0.58012
-0.480957,-0.65332,0.520996,0.5625,84.875,-190.813,-0.329956,0.316528,-0.197937,0.867065,-0.875522,0.431551,-0.653351
-0.465332,-0.684082,0.493652,-19.75,86.75,-199.813,-0.340698,0.318848,-0.23175,0.853516,-0.91212,0.396692,-0.726801
-0.482422,-0.647461,0.459961,-49.875,75.1875,-217.75,-0.356628,0.319275,-0.265381,0.836914,-0.955458,0.352374,-0.797946
-0.371094,-0.678711,0.450684,-82.1875,67.3125,-215.813,-0.377075,0.319458,-0.296082,0.817383,-1.00507,0.303591,-0.862819
-0.199707,-0.786133,0.354004,-94.8125,75.125,-194.5,-0.3974,0.322021,-0.323242,0.796143,-1.05506,0.258714,-0.922614
-0.155762,-0.871582,0.290039,-80.625,93.1875,-171.625,-0.413086,0.327515,-0.348816,0.774841,-1.0981,0.22116,-0.98163
-0.165039,-0.914063,0.297852,-60.75,90.6875,-157.625,-0.424805,0.332031,-0.372925,0.755066,-1.1308,0.185635,-1.03543
-0.0859375,-0.930176,0.270996,-53.25,80.8125,-152.5,-0.435547,0.334778,-0.395752,0.735962,-1.15835,0.148576,-1.08405
-0.0600586,-0.926758,0.234863,-39.75,70.25,-150.125,-0.444702,0.335083,-0.417847,0.717896,-1.17861,0.109694,-1.12761
0,-0.899902,0.262695,-32.5,59.125,-141.375,-0.45282,0.33374,-0.43811,0.701172,-1.19386,0.0713088,-1.16543
0.0576172,-0.94043,0.284668,-34.375,49.375,-126.25,-0.460754,0.332214,-0.455383,0.685547,-1.20798,0.035865,-1.19743
0.0839844,-0.991211,0.302246,-37.0625,42.125,-110.938,-0.468384,0.331116,-0.469849,0.670959,-1.22179,0.0041915,-1.22471
0.0893555,-0.96582,0.279297,-46.75,40.625,-94.75,-0.476685,0.331665,-0.481628,0.656311,-1.2391,-0.0238211,-1.24911
0.0654297,-0.956055,0.257324,-51.875,31.3125,-88.6875,-0.485535,0.332336,-0.491211,0.642273,-1.2577,-0.0501195,-1.26935
0.0844727,-1.04541,0.280762,-54.3125,24.0625,-80.25,-0.494446,0.333008,-0.49884,0.629089,-1.2765,-0.0743842,-1.28563
0.132324,-1.14307,0.296875,-42.375,21.875,-67.5625,-0.501404,0.333252,-0.505615,0.617981,-1.29083,-0.0952922,-1.29968
0.117188,-1.0918,0.265625,-27.125,18.0625,-55.625,-0.506165,0.332947,-0.511353,0.609436,-1.29992,-0.112072,-1.31093
0.152344,-1.13281,0.304199,-1.4375,6.6875,-41,-0.50824,0.3302,-0.516174,0.605164,-1.30008,-0.125358,-1.31705
0.142578,-1.34033,0.364746,22.1875,-9.375,-11.3125,-0.507263,0.326599,-0.517578,0.60675,-1.29292,-0.129127,-1.31502
0.187988,-1.32861,0.328125,28.8125,-23.5625,20.25,-0.505737,0.323486,-0.514771,0.612061,-1.28558,-0.125016,-1.30489
0.0859375,-1.05859,0.274414,31.9375,-15.75,24.1875,-0.502502,0.321655,-0.512085,0.617859,-1.2765,-0.117443,-1.2969
0.0380859,-0.983887,0.235352,-3.9375,-14.8125,31.375,-0.502563,0.324036,-0.506531,0.621216,-1.28024,-0.106738,-1.28864
0.0898438,-1.12109,0.288574,-21.9375,-15.4375,25.8125,-0.504944,0.326965,-0.500854,0.622314,-1.28949,-0.099018,-1.28088
0.100586,-1.10938,0.290527,-0.75,-8.3125,18.9375,-0.504822,0.328003,-0.497864,0.624268,-1.29082,-0.0932769,-1.2762
0.0805664,-0.969238,0.277832,16.125,-4.8125,13.875,-0.502686,0.327393,-0.496765,0.627197,-1.2856,-0.0888708,-1.2732
0.0957031,-0.852051,0.30127,9.5,-4.75,10.25,-0.501221,0.326538,-0.496094,0.629333,-1.28141,-0.0864097,-1.27068
0.107422,-0.814941,0.309082,-14.0625,-2.5,15.4375,-0.501709,0.328125,-0.493896,0.629822,-1.28471,-0.0823571,-1.2684
0.108887,-0.907227,0.337891,-27.3125,-5.25,22.625,-0.503479,0.331177,-0.489929,0.629944,-1.29278,-0.0761662,-1.26458
0.105957,-0.95459,0.319824,-25.8125,-11.125,29.1875,-0.50531,0.334106,-0.48468,0.63092,-1.30083,-0.0682915,-1.25808
0.109863,-0.945801,0.28125,-23,-14.0625,36.5,-0.506958,0.337158,-0.478516,0.63269,-1.30872,-0.0585746,-1.25008
0.103516,-0.95459,0.289551,-16,-15,46.25,-0.507263,0.340271,-0.471619,0.635986,-1.31392,-0.04567,-1.24093
0.0732422,-1.00439,0.322754,-10.6875,-19.8125,58.9375,-0.506287,0.343445,-0.463196,0.641174,-1.31651,-0.0286076,-1.22904
0.0429688,-1.03809,0.313965,0.0625,-25.5625,68.9375,-0.504028,0.34613,-0.453613,0.648376,-1.31573,-0.00842241,-1.21443
0.0385742,-1.04199,0.274414,6.8125,-27.625,73.625,-0.501221,0.348511,-0.443542,0.656189,-1.3133,0.0127528,-1.19861
0.0107422,-0.995117,0.296387,15.9375,-25.6875,81,-0.49646,0.35083,-0.43335,0.665283,-1.30666,0.0365294,-1.1826
-0.0200195,-1.01514,0.301758,14.5,-25.1875,88.1875,-0.491272,0.353943,-0.42218,0.674622,-1.30022,0.0627857,-1.16608
-0.0610352,-1.04541,0.29248,13.0625,-27.125,91.4375,-0.486267,0.3573,-0.410034,0.683899,-1.29442,0.0900634,-1.14825
-0.0810547,-1.02051,0.282227,15.625,-26.75,95.1875,-0.480652,0.360718,-0.397583,0.693359,-1.28734,0.118292,-1.13005
-0.0952148,-0.990234,0.30957,16.4375,-24.375,104.438,-0.473755,0.365173,-0.383972,0.703369,-1.27901,0.150453,-1.11135
-0.152344,-1.06885,0.26416,7.5,-24.4375,107.875,-0.467712,0.370544,-0.369141,0.712524,-1.27363,0.183773,-1.09211
-0.22998,-1.1084,0.269043,9.1875,-27.5,104.75,-0.46167,0.375061,-0.35437,0.721497,-1.26681,0.215675,-1.07173
-0.250488,-1.15088,0.266602,19.9375,-30.375,104.688,-0.454346,0.378418,-0.340027,0.731262,-1.25544,0.246969,-1.05013
-0.260742,-1.13623,0.268066,35.75,-30.25,105.125,-0.444885,0.380737,-0.326538,0.741943,-1.2379,0.277994,-1.02785
-0.29834,-1.10059,0.299316,48.25,-30.1875,103.063,-0.433655,0.382019,-0.314087,0.753235,-1.21494,0.307933,-1.00507
-0.369141,-1.05908,0.327148,57.4375,-31.75,102.563,-0.421143,0.382446,-0.301941,0.764954,-1.18769,0.337137,-0.98066
-0.40625,-0.977051,0.366699,60.5,-35.5,104,-0.40802,0.382202,-0.289368,0.776978,-1.15768,0.3659,-0.953678
-0.437012,-0.9375,0.355957,54.875,-39.5,101.375,-0.395813,0.381348,-0.276367,0.78833,-1.12807,0.392475,-0.924547
-0.472656,-0.921875,0.357422,55.25,-40.8125,101.375,-0.383545,0.380188,-0.263123,0.799438,-1.09732,0.418111,-0.893854
-0.501953,-0.866699,0.389648,61.1875,-41.4375,102.813,-0.370056,0.378601,-0.249939,0.810669,-1.06276,0.443228,-0.861446
-0.517578,-0.789063,0.386719,63.875,-41.375,104.063,-0.355957,0.376892,-0.236572,0.821716,-1.02605,0.46786,-0.827507
-0.526367,-0.71875,0.368164,62.625,-40.8125,107.063,-0.341614,0.375305,-0.222656,0.832397,-0.988148,0.492331,-0.791782
-0.564453,-0.644043,0.359375,58.125,-37.6875,109.875,-0.327332,0.37439,-0.208008,0.842224,-0.950281,0.517219,-0.754761
-0.642578,-0.578613,0.365723,46.25,-36.625,109.25,-0.314575,0.374023,-0.192566,0.850891,-0.915385,0.54142,-0.716835
-0.722656,-0.539551,0.369141,30.5625,-38.5625,110.813,-0.303833,0.373962,-0.175598,0.858459,-0.883775,0.564932,-0.676427
-0.740234,-0.540527,0.404785,25.6875,-42.25,121.375,-0.293091,0.37384,-0.156494,0.865906,-0.850002,0.589189,-0.630536
-0.765137,-0.537109,0.427734,26,-46.625,125,-0.282104,0.372986,-0.136536,0.873291,-0.813022,0.61189,-0.580474
-0.782227,-0.50293,0.4375,21.3125,-50.6875,131.438,-0.271301,0.371765,-0.115112,0.880249,-0.773853,0.633577,-0.525658
-0.844238,-0.443359,0.470703,11.375,-46.875,134.688,-0.261414,0.371338,-0.0925903,0.886108,-0.73587,0.65566,-0.468952
-0.845215,-0.421875,0.525391,2.25,-52.25,140.063,-0.252502,0.370056,-0.0683594,0.891357,-0.696607,0.675366,-0.406727
-0.806641,-0.420898,0.556152,-4.6875,-58.5625,137.25,-0.244812,0.367371,-0.0439453,0.896179,-0.657429,0.690526,-0.34214
-0.724609,-0.423828,0.537598,-14.75,-61,132.188,-0.239014,0.363831,-0.0195923,0.900024,-0.621232,0.701739,-0.277462
-0.765625,-0.346191,0.564453,-28.5625,-54.625,120.875,-0.235779,0.360657,0.00366211,0.902344,-0.592123,0.71101,-0.217452
-0.8125,-0.395508,0.584473,-42.75,-58.9375,120.625,-0.234802,0.356628,0.027832,0.903809,-0.567016,0.717785,-0.156179
-0.770996,-0.47168,0.640625,-40.3125,-69.5625,124.438,-0.233154,0.350647,0.0527954,0.905457,-0.538108,0.7203,-0.0904673
-0.68457,-0.449219,0.644043,-32.375,-80.375,121.875,-0.230225,0.342468,0.0772095,0.907532,-0.505523,0.717035,-0.0232857
-0.644531,-0.375,0.640625,-27.625,-82,115.125,-0.226624,0.333679,0.100342,0.909485,-0.47304,0.710789,0.0412872
-0.641113,-0.357422,0.704102,-42.1875,-81.25,106.188,-0.225708,0.324097,0.122803,0.9104,-0.448834,0.701744,0.101389
-0.573242,-0.433594,0.699219,-45.75,-93.25,89.5,-0.22699,0.310913,0.142639,0.911804,-0.43299,0.683794,0.154087
-0.381348,-0.48291,0.738281,-34.375,-95.875,89.75,-0.226685,0.295593,0.161499,0.913818,-0.415586,0.660429,0.205506
-0.347656,-0.467285,0.753418,-17.875,-77.25,86.1875,-0.224304,0.283203,0.178162,0.915222,-0.39682,0.641393,0.251082
-0.327148,-0.389648,0.768066,-9.5625,-65.875,81.5625,-0.220398,0.272766,0.193542,0.91626,-0.376706,0.62508,0.29329
-0.337891,-0.35498,0.770508,-6.0625,-61.875,68.0625,-0.216431,0.262817,0.206482,0.917236,-0.359271,0.608344,0.328873
-0.262207,-0.284668,0.80127,-11.5625,-47.0625,50.875,-0.213806,0.253845,0.216614,0.918091,-0.347737,0.592857,0.35619
-0.199707,-0.229492,0.845215,-8.8125,-19.625,32.9375,-0.211731,0.248108,0.222839,0.91864,-0.339957,0.582613,0.373085
-0.346191,-0.226074,0.837891,2.25,3.6875,1.3125,-0.210449,0.246826,0.222839,0.919312,-0.337329,0.579509,0.374174
-0.436035,-0.250977,0.79248,1.6875,5.4375,-19.5625,-0.210754,0.246033,0.219421,0.920227,-0.340479,0.576747,0.366186
-0.492188,-0.285645,0.77002,-0.125,6.4375,-30.0625,-0.212341,0.245605,0.214294,0.921204,-0.347631,0.574616,0.353412
-0.542969,-0.271973,0.78418,-0.375,12.3125,-22.25,-0.213623,0.246765,0.210327,0.921509,-0.35297,0.575976,0.343201
-0.599121,-0.294434,0.77832,-2.375,14,-13,-0.215149,0.248962,0.207886,0.921082,-0.357686,0.58007,0.336077
-0.620117,-0.319824,0.765625,-3.5625,8,-7.8125,-0.216736,0.250488,0.206482,0.920654,-0.362051,0.583239,0.331454
-0.629395,-0.316406,0.762695,-5.625,4.6875,-5.5,-0.218384,0.251587,0.205688,0.920105,-0.366204,0.585734,0.328233
-0.680176,-0.291016,0.774902,-1.1875,1.1875,-2.9375,-0.218811,0.252869,0.205383,0.919739,-0.367206,0.588395,0.326944
-0.724609,-0.263184,0.78418,1.9375,-5.75,-1.75,-0.21814,0.253662,0.205627,0.919617,-0.365348,0.589872,0.327779
-0.671387,-0.253418,0.789063,-4.125,-12.0625,-5.125,-0.218201,0.252563,0.20575,0.919861,-0.365576,0.587685,0.328268
-0.589844,-0.255859,0.78418,-10.5,-12.875,-4.75,-0.219116,0.250488,0.206177,0.920166,-0.367776,0.583964,0.329139
-0.572266,-0.285156,0.776367,-9.6875,-11.1875,-2.3125,-0.220276,0.248535,0.206726,0.920288,-0.370412,0.580595,0.330078
-0.578613,-0.295898,0.773438,-10.75,-8.875,0.5625,-0.221558,0.247131,0.207703,0.920105,-0.372945,0.578549,0.331781
-0.552734,-0.302246,0.770508,-8.125,-11.375,3.125,-0.222351,0.245239,0.209045,0.920105,-0.374204,0.5755,0.334783
-0.506348,-0.311035,0.791504,-6.3125,-5.375,4.5,-0.2229,0.243958,0.210144,0.920105,-0.374992,0.573548,0.337266
-0.54248,-0.307617,0.772461,-2.4375,-1.0625,3.125,-0.223145,0.243835,0.210815,0.919922,-0.375136,0.573653,0.33867
-0.524902,-0.271484,0.772949,-4.75,1.875,-0.5625,-0.223633,0.243958,0.210999,0.919739,-0.376127,0.574157,0.338741
-0.537598,-0.296387,0.758789,-8.875,3.125,-0.625,-0.225159,0.244202,0.211182,0.91925,-0.379485,0.575273,0.338083
-0.5625,-0.333496,0.762207,-6.8125,5.5,-1.9375,-0.226807,0.244934,0.210876,0.918701,-0.383366,0.577223,0.336092
-0.60498,-0.325684,0.764648,-0.9375,5.25,-3.5,-0.227539,0.246155,0.210144,0.918335,-0.385335,0.579657,0.333598
-0.601563,-0.318848,0.760254,-1.125,1.25,-3.75,-0.228088,0.246765,0.209656,0.918213,-0.38687,0.580935,0.331981
-0.575684,-0.330566,0.779785,-2.375,-0.9375,-2.9375,-0.228699,0.246582,0.20929,0.918152,-0.388536,0.580603,0.330756
-0.575195,-0.321777,0.791504,-0.0625,1.1875,-3.5,-0.228882,0.246765,0.20874,0.918213,-0.389312,0.580832,0.329338
-0.597656,-0.307617,0.791504,-0.625,3.0625,-3.75,-0.229065,0.247498,0.20813,0.918091,-0.390024,0.582126,0.327611
-0.580566,-0.321777,0.787109,-1.6875,4.875,-5.5,-0.229736,0.248169,0.207214,0.917969,-0.392106,0.583361,0.324883
-0.561523,-0.31543,0.806152,-1,7.1875,-6,-0.230164,0.248962,0.206055,0.917908,-0.393761,0.584643,0.321714
-0.589355,-0.321289,0.794922,1.125,8,-10.6875,-0.230652,0.250061,0.204041,0.917908,-0.396082,0.586189,0.316438
-0.59082,-0.313965,0.771484,1.9375,4.25,-15.1875,-0.231018,0.250549,0.201416,0.918274,-0.398633,0.586209,0.310031
-0.539063,-0.3125,0.776855,0.125,2.5,-15,-0.231567,0.250244,0.198975,0.918762,-0.401578,0.584739,0.304152
-0.523926,-0.316406,0.789063,0.3125,6.5,-15.125,-0.232117,0.250366,0.196289,0.919128,-0.404606,0.583995,0.297575
-0.51416,-0.326172,0.777344,2.25,10.875,-18.875,-0.232788,0.250977,0.192688,0.919556,-0.408496,0.583903,0.288698
-0.503418,-0.317383,0.762207,4.6875,11.8125,-24.8125,-0.233337,0.251648,0.187988,0.920227,-0.412832,0.583413,0.277392
-0.511719,-0.317383,0.745605,7.625,10.9375,-32.375,-0.233704,0.252136,0.182007,0.921204,-0.417578,0.581896,0.263363
-0.509277,-0.302734,0.768066,8.6875,12.125,-35.625,-0.233826,0.252625,0.175537,0.922302,-0.422058,0.58007,0.248426
-0.480469,-0.308105,0.770996,6.75,16.5625,-39.9375,-0.234497,0.253357,0.168152,0.92334,-0.428405,0.578455,0.230996
-0.446289,-0.328125,0.754395,6.75,22.75,-45.4375,-0.235779,0.254456,0.159485,0.924194,-0.436949,0.577032,0.210118
-0.436523,-0.35498,0.728027,11.25,29.1875,-52.5,-0.237122,0.25647,0.14917,0.925049,-0.446774,0.576672,0.185184
-0.512207,-0.365234,0.75,17.75,42.625,-55.125,-0.237732,0.261169,0.137634,0.925354,-0.455951,0.580914,0.156804
-0.598145,-0.333496,0.748535,20.1875,49.4375,-64.0625,-0.238098,0.267456,0.124512,0.925293,-0.466057,0.587453,0.124137
-0.613281,-0.337891,0.726074,16.75,41.8125,-80.375,-0.239624,0.271912,0.109314,0.925537,-0.480292,0.589225,0.0867566
-0.539063,-0.36084,0.746582,11.4375,37.75,-94.0625,-0.242432,0.27417,0.0921021,0.926025,-0.498459,0.585281,0.0451751
-0.523926,-0.37793,0.728516,10.625,40.125,-103.875,-0.246216,0.276306,0.0731201,0.926086,-0.519906,0.5797,-0.000753984
-0.597168,-0.377441,0.719727,12.1875,45.8125,-111,-0.249939,0.279236,0.0526733,0.925598,-0.542258,0.574304,-0.0501367
-0.657715,-0.423828,0.729004,7.5,53.25,-117.063,-0.254761,0.282959,0.031189,0.924133,-0.568089,0.569101,-0.1029
-0.680664,-0.417969,0.742188,-5.1875,54.5,-125.813,-0.261719,0.286377,0.00891113,0.92157,-0.599103,0.561548,-0.158358
-0.635254,-0.442871,0.66748,-14.875,37.6875,-146.5,-0.27124,0.28595,-0.0154419,0.918884,-0.634449,0.543497,-0.216075
-0.507813,-0.500488,0.641113,-19.1875,33.3125,-155.813,-0.28186,0.283997,-0.0410156,0.915527,-0.670743,0.520014,-0.274457
-0.473633,-0.541992,0.634766,-17.4375,42.625,-155.5,-0.29187,0.283203,-0.0670776,0.911072,-0.705351,0.497103,-0.333276
-0.477539,-0.575195,0.634277,-9.3125,52.4375,-153.5,-0.300171,0.283813,-0.0936279,0.905823,-0.736263,0.4757,-0.392475
-0.470703,-0.62207,0.65918,-8.9375,61.3125,-155.938,-0.308167,0.2854,-0.120911,0.899414,-0.766663,0.454335,-0.453168
-0.486816,-0.628906,0.585938,-21.9375,63.8125,-169.313,-0.318481,0.286865,-0.149658,0.890991,-0.8016,0.428891,-0.516881
-0.493164,-0.636719,0.550293,-38.75,65.5,-187.313,-0.331848,0.287842,-0.180237,0.880066,-0.84203,0.397394,-0.58385
-0.420898,-0.67334,0.55957,-57.9375,67.125,-195.375,-0.348083,0.288635,-0.210938,0.866577,-0.88686,0.361205,-0.650542
-0.357422,-0.805176,0.547852,-69.4375,71.1875,-194.625,-0.365601,0.290039,-0.240967,0.850952,-0.93326,0.323011,-0.715662
-0.306152,-0.908691,0.51709,-69.625,73.875,-192.5,-0.382446,0.291565,-0.270569,0.833923,-0.976707,0.283096,-0.778563
-0.244629,-0.937988,0.463379,-63.1875,80.3125,-182.188,-0.397095,0.294006,-0.299011,0.816345,-1.01512,0.244993,-0.838912
-0.202637,-0.853516,0.454102,-53,85,-176,-0.409058,0.296509,-0.327026,0.798584,-1.0469,0.207515,-0.897366
-0.121094,-0.847168,0.413086,-56.3125,74.5,-172.875,-0.421509,0.297546,-0.353394,0.780334,-1.07674,0.167233,-0.950515
-0.0253906,-0.955566,0.350586,-62.125,72.625,-156.063,-0.433777,0.299561,-0.376648,0.761719,-1.10629,0.129965,-0.99873
-0.0463867,-1.04004,0.345215,-48.125,75.75,-141.438,-0.442749,0.302002,-0.398499,0.744263,-1.12902,0.0968191,-1.04448
-0.0493164,-1.00439,0.355469,-34.9375,77.5625,-134.313,-0.449036,0.304138,-0.419861,0.727722,-1.14546,0.0656383,-1.08893
-0.019043,-0.959961,0.366699,-34.625,72.625,-125.875,-0.454712,0.305969,-0.439575,0.711609,-1.15983,0.0357083,-1.13008
0.0249023,-0.95752,0.366211,-39.0625,64,-119.813,-0.46106,0.307251,-0.457336,0.695618,-1.17446,0.00573978,-1.16703
0.0585938,-0.96875,0.368652,-37.5,56.125,-108.75,-0.466919,0.308228,-0.472961,0.680664,-1.18742,-0.0220723,-1.19964
0.0893555,-0.951172,0.374512,-34.4375,51.625,-96.5625,-0.472046,0.308899,-0.486877,0.66687,-1.19832,-0.0476841,-1.22872
0.116699,-0.934082,0.376953,-34.9375,46.625,-85.625,-0.476746,0.309692,-0.499084,0.653992,-1.20842,-0.0708594,-1.25477
0.103027,-0.987793,0.347656,-35.875,40.25,-77.125,-0.481567,0.310974,-0.509216,0.641907,-1.21939,-0.0913381,-1.2774
0.112793,-1.01953,0.319824,-26.875,36,-70.5625,-0.485474,0.311707,-0.518433,0.631165,-1.22776,-0.110117,-1.29764
0.128906,-1.00684,0.297852,-20.6875,34.8125,-62.8125,-0.488403,0.312378,-0.526855,0.621582,-1.23407,-0.126637,-1.31637
0.113281,-0.935059,0.266113,-16.9375,30.875,-54.1875,-0.490601,0.313171,-0.533997,0.613281,-1.23908,-0.140294,-1.3327
0.162598,-0.995605,0.302734,-2.9375,17.25,-43.625,-0.492004,0.311707,-0.539795,0.607788,-1.23943,-0.152854,-1.34329
